onset	duration	eventnumber	blocksequencenumber	isteststim	object	objectnumber	presentationnumber	sequencenumber	stim	stimnumber	teststimnumber	withinsequencenumber	istarget	stimname	response	rt	correct	time_stimon	time_stimoff	stimdur	sample
23.881	50	0	0	0	curry	464	0	0	stimuli\curry\curry_03s.jpg	2	-1	0	0	curry_03s.jpg	1	0.0	0	60.3912747515133	60.4412536863238	0.0499789348104969	23881
23.981	50	1	0	0	hatbox	758	1	0	stimuli\hatbox\hatbox_05s.jpg	4	-1	0	0	hatbox_05s.jpg	0	0.0	0	60.491278701112606	60.5412615370005	0.0499828358879313	23981
24.081	50	2	0	0	headscarf	768	2	0	stimuli\headscarf\headscarf_05s.jpg	4	-1	0	0	headscarf_05s.jpg	0	0.0	0	60.5912780185463	60.6412584162317	0.0499803976854309	24081
24.181	50	3	0	0	cane	258	3	0	stimuli\cane\cane_06n.jpg	5	-1	0	0	cane_06n.jpg	0	0.0	0	60.6912914767163	60.7412777259015	0.0499862491851673	24181
24.281	50	4	0	0	computer_screen	395	4	0	stimuli\computer_screen\computer_screen_07s.jpg	6	-1	0	0	computer_screen_07s.jpg	0	0.0	0	60.7913056664402	60.8412814318435	0.0499757654033601	24281
24.381	50	5	0	0	sifter	1443	5	0	stimuli\sifter\sifter_07s.jpg	6	-1	0	0	sifter_07s.jpg	0	0.0	0	60.891303520998896	60.9419046569383	0.0506011359393597	24381
24.481	50	6	0	0	bathmat	89	6	0	stimuli\bathmat\bathmat_05s.jpg	4	-1	0	0	bathmat_05s.jpg	0	0.0	0	60.991307470598294	61.041277628392	0.049970157793723	24481
24.581	50	7	0	0	bow1	174	7	0	stimuli\bow1\bow1_05s.jpg	4	-1	0	0	bow1_05s.jpg	0	0.0	0	61.0913082507905	61.141268412466204	0.0499601616756991	24581
24.681	50	8	0	0	cash_register	280	8	0	stimuli\cash_register\cash_register_11s.jpg	10	-1	0	0	cash_register_11s.jpg	0	0.0	0	61.1913095186464	61.241276994463995	0.0499674758175388	24681
24.781	50	9	0	0	door	506	9	0	stimuli\door\door_09s.jpg	8	-1	0	0	door_09s.jpg	0	0.0	0	61.291313956026	61.3412760680076	0.0499621119815856	24781
24.881	50	10	0	0	timer	1661	10	0	stimuli\timer\timer_01b.jpg	0	-1	0	0	timer_01b.jpg	0	0.0	0	61.3913169304142	61.441296840552205	0.0499799101380631	24881
24.981	50	11	0	0	mulberry	1037	11	0	stimuli\mulberry\mulberry_08s.jpg	7	-1	0	0	mulberry_08s.jpg	0	0.0	0	61.4913023506524	61.541299571283204	0.0499972206307575	24981
25.081	50	12	0	0	crab	428	12	0	stimuli\crab\crab_04s.jpg	3	-1	0	0	crab_04s.jpg	0	0.0	0	61.591320685111	61.641300107585295	0.04997942247428	25081
25.181	50	13	0	0	ice_pack	820	13	0	stimuli\ice_pack\ice_pack_06s.jpg	5	-1	0	0	ice_pack_06s.jpg	0	0.0	0	61.6913065928966	61.7413028383162	0.0499962454196066	25181
25.281	50	14	0	0	riser	1314	14	0	stimuli\riser\riser_11s.jpg	10	-1	0	0	riser_11s.jpg	0	0.0	0	61.79132931598001	61.8413045937195	0.049975277739577	25281
25.381	50	15	0	0	bamboo	62	15	0	stimuli\bamboo\bamboo_01b.jpg	0	-1	0	0	bamboo_01b.jpg	0	0.0	0	61.89132960850839	61.9412961091148	0.0499665006063879	25381
25.481	50	16	0	0	lock	940	16	0	stimuli\lock\lock_06s.jpg	5	-1	0	0	lock_06s.jpg	0	0.0	0	61.991335508762894	62.0413173693232	0.049981860560364993	25481
25.581	50	17	0	0	microphone	998	17	0	stimuli\microphone\microphone_12s.jpg	11	-1	0	0	microphone_12s.jpg	0	0.0	0	62.0913406774634	62.1413125419058	0.049971864442340995	25581
25.681	50	18	0	0	lighter	928	18	0	stimuli\lighter\lighter_09s.jpg	8	-1	0	0	lighter_09s.jpg	0	0.0	0	62.1913338996237	62.24131356587171	0.0499796662479639	25681
25.781	50	19	0	0	horseshoe	799	19	0	stimuli\horseshoe\horseshoe_06s.jpg	5	-1	0	0	horseshoe_06s.jpg	0	0.0	0	62.2913341921521	62.3413160527125	0.049981860560364993	25781
25.881	50	20	0	0	mold2	1013	20	0	stimuli\mold2\mold2_02s.jpg	1	-1	0	0	mold2_02s.jpg	0	0.0	0	62.391337166656704	62.4413326805225	0.0499955138657242	25881
25.981	50	21	0	0	piglet	1173	21	0	stimuli\piglet\piglet_02s.jpg	1	-1	0	0	piglet_02s.jpg	0	0.0	0	62.4913391658338	62.54132005118301	0.0499808853492141	25981
26.081	50	22	0	0	compost	393	22	0	stimuli\compost\compost_08s.jpg	7	-1	0	0	compost_08s.jpg	0	0.0	0	62.5913414089009	62.64132619521111	0.0499847863102332	26081
26.181	50	23	0	0	train_set	1700	23	0	stimuli\train_set\train_set_09s.jpg	8	-1	0	0	train_set_09s.jpg	0	0.0	0	62.691349503351404	62.741326731629705	0.0499772282782942	26181
26.281	50	24	0	0	icicle	824	24	0	stimuli\icicle\icicle_09s.jpg	8	-1	0	0	icicle_09s.jpg	0	0.0	0	62.791350039769895	62.8413314126665	0.0499813728965819	26281
26.381	50	25	0	0	boxing_gloves	183	25	0	stimuli\boxing_gloves\boxing_gloves_01b.jpg	0	-1	0	0	boxing_gloves_01b.jpg	0	0.0	0	62.891348381876	62.9413321928587	0.0499838109826669	26381
26.481	50	26	0	0	megaphone	993	26	0	stimuli\megaphone\megaphone_09s.jpg	8	-1	0	0	megaphone_09s.jpg	0	0.0	0	62.9913594019599	63.0413366302382	0.0499772282782942	26481
26.581	50	27	0	0	deodorant	479	27	0	stimuli\deodorant\deodorant_12s.jpg	11	-1	0	0	deodorant_12s.jpg	0	0.0	0	63.09135823172979	63.14133887330539	0.0499806415755302	26581
26.681	50	28	0	0	stiletto	1554	28	0	stimuli\stiletto\stiletto_04s.jpg	3	-1	0	0	stiletto_04s.jpg	0	0.0	0	63.19136071857061	63.2413396534976	0.0499789349269122	26681
26.781	50	29	0	0	arugula	40	29	0	stimuli\arugula\arugula_01b.jpg	0	-1	0	0	arugula_01b.jpg	0	0.0	0	63.2913636930753	63.3413431155495	0.04997942247428	26781
26.881	50	30	0	0	shower_curtain	1435	30	0	stimuli\shower_curtain\shower_curtain_01b.jpg	0	-1	0	0	shower_curtain_01b.jpg	0	0.0	0	63.391366179916105	63.4413504785625	0.049984298646449994	26881
26.981	50	31	0	0	egg	546	31	0	stimuli\egg\egg_12s.jpg	11	-1	0	0	egg_12s.jpg	0	0.0	0	63.491371104843	63.5413488206686	0.049977715825661996	26981
27.081	50	32	0	0	notepad	1065	32	0	stimuli\notepad\notepad_12s.jpg	11	-1	0	0	notepad_12s.jpg	0	0.0	0	63.5913718850352	63.641341067617795	0.0499691825825721	27081
27.181	50	33	0	0	ivy	834	33	0	stimuli\ivy\ivy_10s.jpg	9	-1	0	0	ivy_10s.jpg	0	0.0	0	63.6913775413996	63.7413533068029	0.0499757654033601	27181
27.281	50	34	0	0	maple_syrup	971	34	0	stimuli\maple_syrup\maple_syrup_04s.jpg	3	-1	0	0	maple_syrup_04s.jpg	0	0.0	0	63.7913741768571	63.841328487033	0.0499543101759627	27281
27.381	50	35	0	0	helmet	776	35	0	stimuli\helmet\helmet_05s.jpg	4	-1	0	0	helmet_05s.jpg	0	0.0	0	63.8913510637358	63.9413395072334	0.0499884434975684	27381
27.481	50	36	0	0	snowsuit	1486	36	0	stimuli\snowsuit\snowsuit_01b.jpg	0	-1	0	0	snowsuit_01b.jpg	0	0.0	0	63.991385245812104	64.0413680815836	0.049982835771516	27481
27.581	50	37	0	0	cabbage	232	37	0	stimuli\cabbage\cabbage_01b.jpg	0	-1	0	0	cabbage_01b.jpg	0	0.0	0	64.0913860260043	64.1413669113535	0.0499808853492141	27581
27.681	50	38	0	0	sandwich	1357	38	0	stimuli\sandwich\sandwich_01b.jpg	0	-1	0	0	sandwich_01b.jpg	0	0.0	0	64.1913753470872	64.2413435544586	0.0499682073714212	27681
27.781	50	39	0	0	duffel_bag	529	39	0	stimuli\duffel_bag\duffel_bag_10s.jpg	9	-1	0	0	duffel_bag_10s.jpg	0	0.0	0	64.291362473974	64.341353111784	0.0499906378099695	27781
27.881	50	40	0	0	breathalyzer	198	40	0	stimuli\breathalyzer\breathalyzer_10s.jpg	9	-1	0	0	breathalyzer_10s.jpg	0	0.0	0	64.3913778827991	64.4413580367109	0.049980153911747004	27881
27.981	50	41	0	0	toaster_oven	1667	41	0	stimuli\toaster_oven\toaster_oven_11s.jpg	10	-1	0	0	toaster_oven_11s.jpg	0	0.0	0	64.4914032876259	64.5413551597157	0.0499518720898777	27981
28.081	50	42	0	0	birdbath	129	42	0	stimuli\birdbath\birdbath_11s.jpg	10	-1	0	0	birdbath_11s.jpg	0	0.0	0	64.5913716412615	64.6413486256497	0.049976984388195	28081
28.181	50	43	0	0	hood	791	43	0	stimuli\hood\hood_09s.jpg	8	-1	0	0	hood_09s.jpg	0	0.0	0	64.6913712023525	64.74136379058471	0.0499925882322714	28181
28.281	50	44	0	0	racket	1270	44	0	stimuli\racket\racket_04s.jpg	3	-1	0	0	racket_04s.jpg	0	0.0	0	64.7913788092555	64.8413401897997	0.0499613805441186	28281
28.381	50	45	0	0	train	1698	45	0	stimuli\train\train_04s.jpg	3	-1	0	0	train_04s.jpg	0	0.0	0	64.8914037265349	64.9413846118841	0.0499808853492141	28381
28.481	50	46	0	0	heater	772	46	0	stimuli\heater\heater_07s.jpg	6	-1	0	0	heater_07s.jpg	0	0.0	0	64.9913876838982	65.0413617425365	0.0499740586383268	28481
28.581	50	47	0	0	bun	220	47	0	stimuli\bun\bun_05s.jpg	4	-1	0	0	bun_05s.jpg	0	0.0	0	65.0913809059421	65.14136130374389	0.0499803978018463	28581
28.681	50	48	0	0	sandbag	1353	48	0	stimuli\sandbag\sandbag_04s.jpg	3	-1	0	0	sandbag_04s.jpg	0	0.0	0	65.19138388044671	65.241365741007	0.049981860560364993	28681
28.781	50	49	0	0	belt	118	49	0	stimuli\belt\belt_09s.jpg	8	-1	0	0	belt_09s.jpg	0	0.0	0	65.29141806252301	65.3413928525988	0.0499747900757939	28781
28.881	50	50	0	0	goose	693	50	0	stimuli\goose\goose_01b.jpg	0	-1	0	0	goose_01b.jpg	0	0.0	0	65.3914000693476	65.44139997183811	0.0499999024905264	28881
28.981	50	51	0	0	desk	480	51	0	stimuli\desk\desk_05s.jpg	4	-1	0	0	desk_05s.jpg	0	0.0	0	65.4914203543449	65.5414005082566	0.049980153911747004	28981
29.081	50	52	0	0	sheet	1415	52	0	stimuli\sheet\sheet_02s.jpg	1	-1	0	0	sheet_02s.jpg	0	0.0	0	65.5914218659746	65.6413859284949	0.0499640625203028	29081
29.181	50	53	0	0	bow3	176	53	0	stimuli\bow3\bow3_04s.jpg	3	-1	0	0	bow3_04s.jpg	0	0.0	0	65.69142532802651	65.741403531516	0.0499782034894451	29181
29.281	50	54	0	0	mop	1019	54	0	stimuli\mop\mop_02s.jpg	1	-1	0	0	mop_02s.jpg	0	0.0	0	65.7914317158284	65.841405530693	0.0499738148646429	29281
29.381	50	55	0	0	rooster	1330	55	0	stimuli\rooster\rooster_12s.jpg	11	-1	0	0	rooster_12s.jpg	0	0.0	0	65.891430789372	65.9414072860964	0.0499764967244118	29381
29.481	50	56	0	0	nightshirt	1058	56	0	stimuli\nightshirt\nightshirt_03s.jpg	2	-1	0	0	nightshirt_03s.jpg	0	0.0	0	65.9914318133378	66.0414148929995	0.0499830796616152	29481
29.581	50	57	0	0	coverall	425	57	0	stimuli\coverall\coverall_09s.jpg	8	-1	0	0	coverall_09s.jpg	0	0.0	0	66.09143161831891	66.141416160739	0.0499845424201339	29581
29.681	50	58	0	0	pitcher	1190	58	0	stimuli\pitcher\pitcher_03s.jpg	2	-1	0	0	pitcher_03s.jpg	0	0.0	0	66.1914377622306	66.24141620961021	0.0499784473795444	29681
29.781	50	59	0	0	tiara	1655	59	0	stimuli\tiara\tiara_12s.jpg	11	-1	0	0	tiara_12s.jpg	0	0.0	0	66.2914124549134	66.3413913897239	0.0499789348104969	29781
29.881	50	60	0	0	celery	291	60	0	stimuli\celery\celery_04s.jpg	3	-1	0	0	celery_04s.jpg	0	0.0	0	66.39141274744179	66.4414275223389	0.0500147748971358	29881
29.981	50	61	0	0	projector	1242	61	0	stimuli\projector\projector_12s.jpg	11	-1	0	0	projector_12s.jpg	0	0.0	0	66.491442053346	66.5413990453817	0.0499569920357317	29981
30.081	50	62	0	0	birdhouse	131	62	0	stimuli\birdhouse\birdhouse_08s.jpg	7	-1	0	0	birdhouse_08s.jpg	0	0.0	0	66.5914172335761	66.6414266446372	0.0500094110611826	30081
30.181	50	63	0	0	panda	1105	63	0	stimuli\panda\panda_08s.jpg	7	-1	0	0	panda_08s.jpg	0	0.0	0	66.6914536098484	66.74141645338389	0.04996284353546799	30181
30.281	50	64	0	0	barrel	76	64	0	stimuli\barrel\barrel_12s.jpg	11	-1	0	0	barrel_12s.jpg	0	0.0	0	66.7914575595642	66.8414308868814	0.0499733273172751	30281
30.381	50	65	0	0	microwave	1000	65	0	stimuli\microwave\microwave_09s.jpg	8	-1	0	0	microwave_09s.jpg	0	0.0	0	66.8914549264591	66.94143654324579	0.0499816167866811	30381
30.481	50	66	0	0	shredder	1437	66	0	stimuli\shredder\shredder_10s.jpg	9	-1	0	0	shredder_10s.jpg	0	0.0	0	66.9914576570736	67.04140660353	0.0499489464564249	30481
30.581	50	67	0	0	contact_lens	397	67	0	stimuli\contact_lens\contact_lens_06s.jpg	5	-1	0	0	contact_lens_06s.jpg	0	0.0	0	67.0914616067894	67.1414378598565	0.0499762530671433	30581
30.681	50	68	0	0	chalkboard	303	68	0	stimuli\chalkboard\chalkboard_01b.jpg	0	-1	0	0	chalkboard_01b.jpg	0	0.0	0	67.1914648250677	67.2414435162209	0.0499786911532283	30681
30.781	50	69	0	0	videocassette	1761	69	0	stimuli\videocassette\videocassette_02n.jpg	1	-1	0	0	videocassette_02n.jpg	0	0.0	0	67.291464386275	67.34142918023281	0.0499647939577699	30781
30.881	50	70	0	0	pinwheel	1185	70	0	stimuli\pinwheel\pinwheel_02s.jpg	1	-1	0	0	pinwheel_02s.jpg	0	0.0	0	67.3914658979047	67.4414477584651	0.049981860560364993	30881
30.981	50	71	0	0	lip_balm	934	71	0	stimuli\lip_balm\lip_balm_02s.jpg	1	-1	0	0	lip_balm_02s.jpg	0	0.0	0	67.49146960373041	67.5414480509935	0.0499784472631291	30981
31.081	50	72	0	0	sofa_bed	1492	72	0	stimuli\sofa_bed\sofa_bed_03s.jpg	2	-1	0	0	sofa_bed_03s.jpg	0	0.0	0	67.5914769668598	67.64143590931779	0.0499589424580336	31081
31.181	50	73	0	0	plastic_film	1196	73	0	stimuli\plastic_film\plastic_film_04s.jpg	3	-1	0	0	plastic_film_04s.jpg	0	0.0	0	67.6914733584272	67.74145595042499	0.0499825919978321	31181
31.281	50	74	0	0	leg	911	74	0	stimuli\leg\leg_02s.jpg	1	-1	0	0	leg_02s.jpg	0	0.0	0	67.7914551214781	67.8414311306551	0.049976009177044006	31281
31.381	50	75	0	0	filing_cabinet	585	75	0	stimuli\filing_cabinet\filing_cabinet_12s.jpg	11	-1	0	0	filing_cabinet_12s.jpg	0	0.0	0	67.8914493188495	67.941464581294	0.0500152624445036	31381
31.481	50	76	0	0	pen	1141	76	0	stimuli\pen\pen_08s.jpg	7	-1	0	0	pen_08s.jpg	0	0.0	0	67.991461314261	68.04143488535189	0.049973571090959006	31481
31.581	50	77	0	0	gyro	730	77	0	stimuli\gyro\gyro_03s.jpg	2	-1	0	0	gyro_03s.jpg	0	0.0	0	68.0914845248917	68.1414661416784	0.0499816167866811	31581
31.681	50	78	0	0	valve	1751	78	0	stimuli\valve\valve_09s.jpg	8	-1	0	0	valve_09s.jpg	0	0.0	0	68.1914872555062	68.2414639961207	0.0499767406145111	31681
31.781	50	79	0	0	kilt	872	79	0	stimuli\kilt\kilt_03s.jpg	2	-1	0	0	kilt_03s.jpg	0	0.0	0	68.2914853538387	68.34146697062529	0.0499816167866811	31781
31.881	50	80	0	0	carriage	276	80	0	stimuli\carriage\carriage_01b.jpg	0	-1	0	0	carriage_01b.jpg	0	0.0	0	68.3914880844532	68.44147506507579	0.0499869806226343	31881
31.981	50	81	0	0	chicken_wire	324	81	0	stimuli\chicken_wire\chicken_wire_08s.jpg	7	-1	0	0	chicken_wire_08s.jpg	0	0.0	0	68.49149374093389	68.5414721881971	0.0499784472631291	31981
32.081	50	82	0	0	straightjacket	1565	82	0	stimuli\straightjacket\straightjacket_05s.jpg	4	-1	0	0	straightjacket_05s.jpg	0	0.0	0	68.5914913516026	68.6414719930617	0.0499806414591148	32081
32.181	50	83	0	0	potato	1231	83	0	stimuli\potato\potato_05n.jpg	4	-1	0	0	potato_05n.jpg	0	0.0	0	68.6914967640769	68.7414798437385	0.0499830796616152	32181
32.281	50	84	0	0	brick	199	84	0	stimuli\brick\brick_06s.jpg	5	-1	0	0	brick_06s.jpg	0	0.0	0	68.7914743823931	68.8414523421088	0.0499779597157612	32281
32.381	50	85	0	0	oven	1089	85	0	stimuli\oven\oven_04s.jpg	3	-1	0	0	oven_04s.jpg	0	0.0	0	68.8914758940227	68.9414594613481	0.0499835673253983	32381
32.481	50	86	0	0	sheath	1413	86	0	stimuli\sheath\sheath_05s.jpg	4	-1	0	0	sheath_05s.jpg	0	0.0	0	68.9914769179886	69.0414597538766	0.0499828358879313	32481
32.581	50	87	0	0	french_horn	642	87	0	stimuli\french_horn\french_horn_04s.jpg	3	-1	0	0	french_horn_04s.jpg	0	0.0	0	69.0914784296183	69.1414595588576	0.0499811292393133	32581
32.681	50	88	0	0	water_bottle	1787	88	0	stimuli\water_bottle\water_bottle_01b.jpg	0	-1	0	0	water_bottle_01b.jpg	0	0.0	0	69.1915143183433	69.2414913027314	0.049976984388195	32681
32.781	50	89	0	0	gyroscope	731	89	0	stimuli\gyroscope\gyroscope_07s.jpg	6	-1	0	0	gyroscope_07s.jpg	0	0.0	0	69.2915168051841	69.3414979344234	0.0499811292393133	32781
32.881	50	90	0	0	robot	1318	90	0	stimuli\robot\robot_12s.jpg	11	-1	0	0	robot_12s.jpg	0	0.0	0	69.3915007625474	69.4414982269518	0.0499974644044414	32881
32.981	50	91	0	0	tumbleweed	1727	91	0	stimuli\tumbleweed\tumbleweed_06s.jpg	5	-1	0	0	tumbleweed_06s.jpg	0	0.0	0	69.4915222665295	69.5415012014564	0.0499789349269122	32981
33.081	50	92	0	0	wood	1833	92	0	stimuli\wood\wood_10s.jpg	9	-1	0	0	wood_10s.jpg	0	0.0	0	69.5915196334245	69.64150100643751	0.0499813730129972	33081
33.181	50	93	0	0	mouth	1031	93	0	stimuli\mouth\mouth_02s.jpg	1	-1	0	0	mouth_02s.jpg	0	0.0	0	69.6914977394044	69.7414788685273	0.04998112912289799	33181
33.281	50	94	0	0	railing	1277	94	0	stimuli\railing\railing_03s.jpg	2	-1	0	0	railing_03s.jpg	0	0.0	0	69.7914980319329	69.8414774544071	0.04997942247428	33281
33.381	50	95	0	0	coop	404	95	0	stimuli\coop\coop_01b.jpg	0	-1	0	0	coop_01b.jpg	0	0.0	0	69.89150100643751	69.9414794537006	0.0499784472631291	33381
33.481	50	96	0	0	footprint	632	96	0	stimuli\footprint\footprint_10s.jpg	9	-1	0	0	footprint_10s.jpg	0	0.0	0	69.9915039808257	70.0415158299729	0.0500118491472676	33481
33.581	50	97	0	0	charcoal	307	97	0	stimuli\charcoal\charcoal_05s.jpg	4	-1	0	0	charcoal_05s.jpg	0	0.0	0	70.0915230467217	70.1415146597428	0.0499916130211204	33581
33.681	50	98	0	0	gurney	728	98	0	stimuli\gurney\gurney_06s.jpg	5	-1	0	0	gurney_06s.jpg	0	0.0	0	70.1915408936329	70.24151665891989	0.0499757652869448	33681
33.781	50	99	0	0	organ	1082	99	0	stimuli\organ\organ_04s.jpg	3	-1	0	0	organ_04s.jpg	0	0.0	0	70.2915385043016	70.3415171953384	0.049978691036812996	33781
33.881	50	100	0	0	figurine	582	100	0	stimuli\figurine\figurine_01b.jpg	0	-1	0	0	figurine_01b.jpg	0	0.0	0	70.39153684629129	70.4415187069681	0.0499818606767803	33881
33.981	50	101	0	0	mustard	1044	101	0	stimuli\mustard\mustard_09s.jpg	8	-1	0	0	mustard_09s.jpg	0	0.0	0	70.491526898928	70.5415272890823	0.0500003901543096	33981
34.081	50	102	0	0	saffron	1345	102	0	stimuli\saffron\saffron_11s.jpg	10	-1	0	0	saffron_11s.jpg	0	0.0	0	70.5915313363075	70.6415100273443	0.049978691036812996	34081
34.181	50	103	0	0	blowfish	146	103	0	stimuli\blowfish\blowfish_05s.jpg	4	-1	0	0	blowfish_05s.jpg	0	0.0	0	70.69154991453979	70.7415061751381	0.0499562605982646	34181
34.281	50	104	0	0	waterwheel	1794	104	0	stimuli\waterwheel\waterwheel_10s.jpg	9	-1	0	1	waterwheel_10s.jpg	0	0.0	0	70.7915226566838	70.84150354203301	0.0499808853492141	34281
34.381	50	105	0	0	mullet	1039	105	0	stimuli\mullet\mullet_10s.jpg	9	-1	0	0	mullet_10s.jpg	0	0.0	0	70.891525631072	70.9415096859448	0.0499840548727661	34381
34.481	50	106	0	0	showerhead	1436	106	0	stimuli\showerhead\showerhead_07s.jpg	6	-1	0	0	showerhead_07s.jpg	0	0.0	0	70.9915288493503	71.04153996706009	0.0500111177098006	34481
34.581	50	107	0	0	paperclip	1116	107	0	stimuli\paperclip\paperclip_03s.jpg	2	-1	0	0	paperclip_03s.jpg	1	0.341928989044391	1	71.0915488905739	71.1415409911424	0.0499921005684882	34581
34.681	50	108	0	0	cruise_ship	450	108	0	stimuli\cruise_ship\cruise_ship_05s.jpg	4	-1	0	0	cruise_ship_05s.jpg	0	0.0	0	71.1915657621576	71.24154567229559	0.0499799101380631	34681
34.781	50	109	0	0	grapevine	704	109	0	stimuli\grapevine\grapevine_09s.jpg	8	-1	0	0	grapevine_09s.jpg	0	0.0	0	71.29156312893609	71.3415462085977	0.0499830796616152	34781
34.881	50	110	0	0	doll	499	110	0	stimuli\doll\doll_10s.jpg	9	-1	0	0	doll_10s.jpg	0	0.0	0	71.391565859667	71.4415243145777	0.0499584549106658	34881
34.981	50	111	0	0	ant	24	111	0	stimuli\ant\ant_04s.jpg	3	-1	0	0	ant_04s.jpg	0	0.0	0	71.4915427465457	71.54151851194909	0.0499757654033601	34981
35.081	50	112	0	0	flag	605	112	0	stimuli\flag\flag_07n.jpg	6	-1	0	0	flag_07n.jpg	0	0.0	0	71.5915425515268	71.6415236806497	0.04998112912289799	35081
35.181	50	113	0	0	grape	702	113	0	stimuli\grape\grape_03s.jpg	2	-1	0	0	grape_03s.jpg	0	0.0	0	71.6915477202274	71.74152860557659	0.0499808853492141	35181
35.281	50	114	0	0	underwear	1745	114	0	stimuli\underwear\underwear_10s.jpg	9	-1	0	0	underwear_10s.jpg	0	0.0	0	71.79155288904441	71.8415284105577	0.0499755215132609	35281
35.381	50	115	0	0	windsock	1822	115	0	stimuli\windsock\windsock_01b.jpg	0	-1	0	0	windsock_01b.jpg	0	0.0	0	71.89155366923659	71.9415311411722	0.0499774719355628	35381
35.481	50	116	0	0	banjo	68	116	0	stimuli\banjo\banjo_04s.jpg	3	-1	0	0	banjo_04s.jpg	0	0.0	0	71.99155176745259	72.041533628013	0.049981860560364993	35481
35.581	50	117	0	0	ketchup	867	117	0	stimuli\ketchup\ketchup_04s.jpg	3	-1	0	0	ketchup_04s.jpg	0	0.0	0	72.0915532790823	72.14153660251759	0.0499833234352991	35581
35.681	50	118	0	0	drink	521	118	0	stimuli\drink\drink_11s.jpg	10	-1	0	0	drink_11s.jpg	0	0.0	0	72.1915582040092	72.2415724912426	0.0500142872333527	35681
35.781	50	119	0	0	hearse	771	119	0	stimuli\hearse\hearse_02s.jpg	1	-1	0	0	hearse_02s.jpg	0	0.0	0	72.2915938489605	72.3415747343097	0.0499808853492141	35781
35.881	50	120	0	0	flashlight	611	120	0	stimuli\flashlight\flashlight_02s.jpg	1	-1	0	0	flashlight_02s.jpg	0	0.0	0	72.391581219621	72.4415830725338	0.0500018529128283	35881
35.981	50	121	0	0	tree	1708	121	0	stimuli\tree\tree_01b.jpg	0	-1	0	0	tree_01b.jpg	0	0.0	0	72.4915990664158	72.54158360895241	0.0499845425365493	35981
36.081	50	122	0	0	silicone	1444	122	0	stimuli\silicone\silicone_09s.jpg	8	-1	0	0	silicone_09s.jpg	0	0.0	0	72.5915857057553	72.6415702481754	0.0499845424201339	36081
36.181	50	123	0	0	jug	853	123	0	stimuli\jug\jug_07s.jpg	6	-1	0	0	jug_07s.jpg	0	0.0	0	72.69161013537091	72.7415876074228	0.0499774720519781	36181
36.281	50	124	0	0	cloak	358	124	0	stimuli\cloak\cloak_06s.jpg	5	-1	0	0	cloak_06s.jpg	0	0.0	0	72.79159677459391	72.84158789995129	0.0499911253573373	36281
36.381	50	125	0	0	sail	1346	125	0	stimuli\sail\sail_06s.jpg	5	-1	0	0	sail_06s.jpg	0	0.0	0	72.8915934100514	72.94159136211971	0.0499979520682245	36381
36.481	50	126	0	0	hummingbird	811	126	0	stimuli\hummingbird\hummingbird_07s.jpg	6	-1	0	0	hummingbird_07s.jpg	0	0.0	0	72.99161198828371	73.0415780013427	0.049966013059019994	36481
36.581	50	127	0	0	cake_mix	238	127	0	stimuli\cake_mix\cake_mix_05s.jpg	4	-1	0	0	cake_mix_05s.jpg	0	0.0	0	73.0916176447645	73.14159389771521	0.0499762529507279	36581
36.681	50	128	0	0	christmas_card	340	128	0	stimuli\christmas_card\christmas_card_06s.jpg	5	-1	0	0	christmas_card_06s.jpg	0	0.0	0	73.1916198877152	73.2415973597672	0.0499774720519781	36681
36.781	50	129	0	0	sarcophagus	1358	129	0	stimuli\sarcophagus\sarcophagus_02s.jpg	1	-1	0	0	sarcophagus_02s.jpg	0	0.0	0	73.2916194489226	73.3415835114429	0.0499640625203028	36781
36.881	50	130	0	0	badge	52	130	0	stimuli\badge\badge_08s.jpg	7	-1	0	0	badge_08s.jpg	0	0.0	0	73.391619741451	73.4416042839875	0.0499845425365493	36881
36.981	50	131	0	0	cornbread	413	131	0	stimuli\cornbread\cornbread_09s.jpg	8	-1	0	0	cornbread_09s.jpg	0	0.0	0	73.491627104464	73.5416057956172	0.0499786911532283	36981
37.081	50	132	0	0	straw2	1569	132	0	stimuli\straw2\straw2_12s.jpg	11	-1	0	0	straw2_12s.jpg	0	0.0	0	73.59162812854629	73.6415899967542	0.0499618682079017	37081
37.181	50	133	0	0	chimney	329	133	0	stimuli\chimney\chimney_05s.jpg	4	-1	0	1	chimney_05s.jpg	0	0.0	0	73.6916289087385	73.74161028163509	0.0499813728965819	37181
37.281	50	134	0	0	flip_flop	614	134	0	stimuli\flip_flop\flip_flop_09s.jpg	8	-1	0	0	flip_flop_09s.jpg	0	0.0	0	73.7916248127585	73.8416078923037	0.0499830795451999	37281
37.381	50	135	0	0	tulip	1726	135	0	stimuli\tulip\tulip_06s.jpg	5	-1	0	0	tulip_06s.jpg	0	0.0	0	73.8916338824201	73.941608916386	0.0499750339658931	37381
37.481	50	136	0	0	antenna	27	136	0	stimuli\antenna\antenna_06s.jpg	5	-1	0	0	antenna_06s.jpg	1	0.341918992926367	1	73.9916324682999	74.0416118907742	0.04997942247428	37481
37.581	50	137	0	0	tea	1631	137	0	stimuli\tea\tea_08s.jpg	7	-1	0	0	tea_08s.jpg	0	0.0	0	74.0916332484921	74.1416121834191	0.0499789349269122	37581
37.681	50	138	0	0	waffle_iron	1771	138	0	stimuli\waffle_iron\waffle_iron_10s.jpg	9	-1	0	0	waffle_iron_10s.jpg	0	0.0	0	74.1916352477856	74.24161540169729	0.049980153911747004	37681
37.781	50	139	0	0	hinge	779	139	0	stimuli\hinge\hinge_08s.jpg	7	-1	0	0	hinge_08s.jpg	0	0.0	0	74.29163505265021	74.341616913327	0.0499818606767803	37781
37.881	50	140	0	0	granite	700	140	0	stimuli\granite\granite_11s.jpg	10	-1	0	0	granite_11s.jpg	0	0.0	0	74.3916397338035	74.4416123296833	0.0499725958798081	37881
37.981	50	141	0	0	trident	1712	141	0	stimuli\trident\trident_04s.jpg	3	-1	0	0	trident_04s.jpg	0	0.0	0	74.4916292987764	74.5416118907742	0.0499825919978321	37981
38.081	50	142	0	0	cinnamon	348	142	0	stimuli\cinnamon\cinnamon_02s.jpg	1	-1	0	0	cinnamon_02s.jpg	0	0.0	0	74.59164129418791	74.6416377833812	0.0499964891932905	38081
38.181	50	143	0	0	piano	1165	143	0	stimuli\piano\piano_09n.jpg	8	-1	0	0	piano_09n.jpg	0	0.0	0	74.6916428058175	74.741636369261	0.0499935634434223	38181
38.281	50	144	0	0	lamppost	892	144	0	stimuli\lamppost\lamppost_11s.jpg	10	-1	0	0	lamppost_11s.jpg	0	0.0	0	74.791660165065	74.8416388561018	0.049978691036812996	38281
38.381	50	145	0	0	dartboard	474	145	0	stimuli\dartboard\dartboard_05s.jpg	4	-1	0	0	dartboard_05s.jpg	0	0.0	0	74.8916638708906	74.9416423181538	0.0499784472631291	38381
38.481	50	146	0	0	cat	284	146	0	stimuli\cat\cat_03s.jpg	2	-1	0	0	cat_03s.jpg	0	0.0	0	74.99166294443421	75.0416418793611	0.0499789349269122	38481
38.581	50	147	0	0	jam	839	147	0	stimuli\jam\jam_08s.jpg	7	-1	0	0	jam_08s.jpg	0	0.0	0	75.0916629931889	75.1416463166242	0.0499833234352991	38581
38.681	50	148	0	0	periscope	1155	148	0	stimuli\periscope\periscope_02s.jpg	1	-1	0	0	periscope_02s.jpg	0	0.0	0	75.19167181907692	75.241648072144	0.0499762530671433	38681
38.781	50	149	0	0	lego	913	149	0	stimuli\lego\lego_02s.jpg	1	-1	0	0	lego_02s.jpg	0	0.0	0	75.2916713802842	75.3416551913833	0.0499838110990822	38781
38.881	50	150	0	0	ironing_board	833	150	0	stimuli\ironing_board\ironing_board_03s.jpg	2	-1	0	0	ironing_board_03s.jpg	0	0.0	0	75.3916516804602	75.44162988394959	0.0499782034894451	38881
38.981	50	151	0	0	juicer1	855	151	0	stimuli\juicer1\juicer1_01s.jpg	0	-1	0	0	juicer1_01s.jpg	0	0.0	0	75.4916548987385	75.5416311516892	0.0499762529507279	38981
39.081	50	152	0	0	bonsai	164	152	0	stimuli\bonsai\bonsai_01b.jpg	0	-1	0	0	bonsai_01b.jpg	0	0.0	0	75.59167713415809	75.6416585071711	0.0499813730129972	39081
39.181	50	153	0	0	pocket	1205	153	0	stimuli\pocket\pocket_06s.jpg	5	-1	0	0	pocket_06s.jpg	0	0.0	0	75.6916805962101	75.741659531137	0.0499789349269122	39181
39.281	50	154	0	0	block	143	154	0	stimuli\block\block_09s.jpg	8	-1	0	0	block_09s.jpg	0	0.0	0	75.79166187171359	75.8416430008365	0.04998112912289799	39281
39.381	50	155	0	0	fire_alarm	591	155	0	stimuli\fire_alarm\fire_alarm_01b.jpg	0	-1	0	0	fire_alarm_01b.jpg	0	0.0	0	75.89166362711691	75.9416420743801	0.0499784472631291	39381
39.481	50	156	0	0	slipper	1468	156	0	stimuli\slipper\slipper_02s.jpg	1	-1	0	0	slipper_02s.jpg	0	0.0	0	75.9916651387466	76.04164675553329	0.0499816167866811	39481
39.581	50	157	0	0	bread	194	157	0	stimuli\bread\bread_02s.jpg	1	-1	0	0	bread_02s.jpg	0	0.0	0	76.0916890808148	76.14167191658629	0.049982835771516	39581
39.681	50	158	0	0	bank	69	158	0	stimuli\bank\bank_06s.jpg	5	-1	0	0	bank_06s.jpg	0	0.0	0	76.1916918114293	76.24167684162971	0.0499850302003324	39681
39.781	50	159	0	0	yarn	1846	159	0	stimuli\yarn\yarn_05s.jpg	4	-1	0	0	yarn_05s.jpg	0	0.0	0	76.2916938107228	76.34167469607199	0.0499808853492141	39781
39.881	50	160	0	0	tube_top	1724	160	0	stimuli\tube_top\tube_top_10s.jpg	9	-1	0	0	tube_top_10s.jpg	0	0.0	0	76.3917026366107	76.4416793772252	0.0499767406145111	39881
39.981	50	161	0	0	bulletproof_vest	218	161	0	stimuli\bulletproof_vest\bulletproof_vest_12s.jpg	11	-1	0	0	bulletproof_vest_12s.jpg	0	0.0	0	76.49169902817809	76.5416808888549	0.0499818606767803	39981
40.081	50	162	0	0	trolley	1715	162	0	stimuli\trolley\trolley_01b.jpg	0	-1	0	0	trolley_01b.jpg	0	0.0	0	76.591686155065	76.6416894708527	0.0500033157877624	40081
40.181	50	163	0	0	nut	1066	163	0	stimuli\nut\nut_03s.jpg	2	-1	0	0	nut_03s.jpg	0	0.0	0	76.6917071714997	76.7416883006226	0.04998112912289799	40181
40.281	50	164	0	0	orange_rind	1079	164	0	stimuli\orange_rind\orange_rind_07s.jpg	6	-1	0	0	orange_rind_07s.jpg	0	0.0	0	76.7917106335517	76.8416907874634	0.049980153911747004	40281
40.381	50	165	0	0	hairpin	737	165	0	stimuli\hairpin\hairpin_06s.jpg	5	-1	0	0	hairpin_06s.jpg	0	0.0	0	76.89171775279101	76.9416959562805	0.0499782034894451	40381
40.481	50	166	0	0	cheesecake	314	166	0	stimuli\cheesecake\cheesecake_05s.jpg	4	-1	0	0	cheesecake_05s.jpg	0	0.0	0	76.99171390058471	77.0416938107228	0.0499799101380631	40481
40.581	50	167	0	0	thumbtack	1654	167	0	stimuli\thumbtack\thumbtack_04s.jpg	3	-1	0	0	thumbtack_04s.jpg	0	0.0	0	77.09171468077692	77.1417028803844	0.0499881996074691	40581
40.681	50	168	0	0	muff	1034	168	0	stimuli\muff\muff_08s.jpg	7	-1	0	0	muff_08s.jpg	0	0.0	0	77.1917171676178	77.2416975654196	0.0499803978018463	40681
40.781	50	169	0	0	microscope	999	169	0	stimuli\microscope\microscope_01b.jpg	0	-1	0	0	microscope_01b.jpg	0	0.0	0	77.291701124981	77.3416810351191	0.0499799101380631	40781
40.881	50	170	0	0	skeleton	1450	170	0	stimuli\skeleton\skeleton_08s.jpg	7	-1	0	0	skeleton_08s.jpg	0	0.0	0	77.3917053184705	77.4417057086248	0.0500003901543096	40881
40.981	50	171	0	0	champagne	304	171	0	stimuli\champagne\champagne_03s.jpg	2	-1	0	0	champagne_03s.jpg	0	0.0	0	77.4917282853276	77.5417067325907	0.0499784472631291	40981
41.081	50	172	0	0	power_line	1237	172	0	stimuli\power_line\power_line_01b.jpg	0	-1	0	0	power_line_01b.jpg	0	0.0	0	77.5917329664808	77.64169459091501	0.0499616244342178	41081
41.181	50	173	0	0	bird	128	173	0	stimuli\bird\bird_05s.jpg	4	-1	0	0	bird_05s.jpg	0	0.0	0	77.6917332590092	77.7416951273335	0.049961868324317	41181
41.281	50	174	0	0	column	388	174	0	stimuli\column\column_12s.jpg	11	-1	0	0	column_12s.jpg	0	0.0	0	77.7917308696778	77.84169737028421	0.0499665006063879	41281
41.381	50	175	0	0	aquarium	34	175	0	stimuli\aquarium\aquarium_05s.jpg	4	-1	0	0	aquarium_05s.jpg	0	0.0	0	77.8917218975257	77.9416996133514	0.049977715825661996	41381
41.481	50	176	0	0	catfish	287	176	0	stimuli\catfish\catfish_11s.jpg	10	-1	0	1	catfish_11s.jpg	0	0.0	0	77.9917148757959	78.0416960050352	0.0499811292393133	41481
41.581	50	177	0	0	graffiti	697	177	0	stimuli\graffiti\graffiti_04s.jpg	3	-1	0	0	graffiti_04s.jpg	0	0.0	0	78.0917432064889	78.14172336040059	0.049980153911747004	41581
41.681	50	178	0	0	whipped_cream	1810	178	0	stimuli\whipped_cream\whipped_cream_09s.jpg	8	-1	0	0	whipped_cream_09s.jpg	0	0.0	0	78.1917444742285	78.24170829297509	0.0499638187466189	41681
41.781	50	179	0	0	salad	1348	179	0	stimuli\salad\salad_02s.jpg	1	-1	0	0	salad_02s.jpg	1	0.341947518638335	1	78.2917457420845	78.34170687885491	0.0499611367704347	41781
41.881	50	180	0	0	pill	1174	180	0	stimuli\pill\pill_09s.jpg	8	-1	0	0	pill_09s.jpg	0	0.0	0	78.3917294555577	78.44173374667301	0.0500042911153287	41881
41.981	50	181	0	0	camera2	247	181	0	stimuli\camera2\camera2_11s.jpg	10	-1	0	0	camera2_11s.jpg	0	0.0	0	78.4917309671873	78.5417111212155	0.0499801540281624	41981
42.081	50	182	0	0	sprinkler	1523	182	0	stimuli\sprinkler\sprinkler_05s.jpg	4	-1	0	0	sprinkler_05s.jpg	0	0.0	0	78.59173491690309	78.64171336416621	0.0499784472631291	42081
42.181	50	183	0	0	flatiron	613	183	0	stimuli\flatiron\flatiron_07s.jpg	6	-1	0	0	flatiron_07s.jpg	0	0.0	0	78.69173984183	78.7417192644207	0.0499794225906953	42181
42.281	50	184	0	0	guacamole	719	184	0	stimuli\guacamole\guacamole_07s.jpg	6	-1	0	0	guacamole_07s.jpg	0	0.0	0	78.79173062590421	78.8417083417298	0.049977715825661996	42281
42.381	50	185	0	0	gazelle	666	185	0	stimuli\gazelle\gazelle_09s.jpg	8	-1	0	0	gazelle_09s.jpg	0	0.0	0	78.8917275051353	78.9417079028208	0.0499803976854309	42381
42.481	50	186	0	0	handlebar	749	186	0	stimuli\handlebar\handlebar_08s.jpg	7	-1	0	0	handlebar_08s.jpg	0	0.0	0	78.9917275538901	79.04171160876291	0.0499840548727661	42481
42.581	50	187	0	0	air_pump	6	187	0	stimuli\air_pump\air_pump_07s.jpg	6	-1	0	0	air_pump_07s.jpg	0	0.0	0	79.09172979695721	79.1417467660503	0.0500169690931216	42581
42.681	50	188	0	0	rocking_horse	1322	188	0	stimuli\rocking_horse\rocking_horse_05s.jpg	4	-1	0	0	rocking_horse_05s.jpg	0	0.0	0	79.19176787999459	79.2417480339063	0.049980153911747004	42681
42.781	50	189	0	0	mosquito_net	1021	189	0	stimuli\mosquito_net\mosquito_net_10s.jpg	9	-1	0	0	mosquito_net_10s.jpg	0	0.0	0	79.2917708543828	79.3417341854656	0.0499633310828358	42781
42.881	50	190	0	0	cranberry	430	190	0	stimuli\cranberry\cranberry_07n.jpg	6	-1	0	0	cranberry_07n.jpg	0	0.0	0	79.3917762669735	79.4417408171576	0.049964550184086	42881
42.981	50	191	0	0	bikini	124	191	0	stimuli\bikini\bikini_01b.jpg	0	-1	0	0	bikini_01b.jpg	0	0.0	0	79.491776803392	79.5417664658744	0.0499896624824032	42981
43.081	50	192	0	0	quilt	1264	192	0	stimuli\quilt\quilt_06s.jpg	5	-1	0	0	quilt_06s.jpg	0	0.0	0	79.5917824597564	79.6417687089415	0.0499862491851673	43081
43.181	50	193	0	0	bandanna	67	193	0	stimuli\bandanna\bandanna_08s.jpg	7	-1	0	0	bandanna_08s.jpg	0	0.0	0	79.6917827522848	79.7417658319464	0.0499830796616152	43181
43.281	50	194	0	0	stilt	1555	194	0	stimuli\stilt\stilt_01b.jpg	0	-1	0	0	stilt_01b.jpg	0	0.0	0	79.7917840201408	79.841751739732	0.0499677195912227	43281
43.381	50	195	0	0	urn	1749	195	0	stimuli\urn\urn_11s.jpg	10	-1	0	0	urn_11s.jpg	0	0.0	0	79.89178601931779	79.941764710471	0.0499786911532283	43381
43.481	50	196	0	0	pipe2	1187	196	0	stimuli\pipe2\pipe2_04s.jpg	3	-1	0	0	pipe2_04s.jpg	0	0.0	0	79.9917865557363	80.0417674410855	0.0499808853492141	43481
43.581	50	197	0	0	clay	352	197	0	stimuli\clay\clay_11s.jpg	10	-1	0	0	clay_11s.jpg	0	0.0	0	80.09177685214671	80.14175968791821	0.049982835771516	43581
43.681	50	198	0	0	cloud	364	198	0	stimuli\cloud\cloud_12s.jpg	11	-1	0	0	cloud_12s.jpg	0	0.0	0	80.1917951866053	80.2417748528533	0.0499796662479639	43681
43.781	50	199	0	0	gondola	691	199	0	stimuli\gondola\gondola_11s.jpg	10	-1	0	0	gondola_11s.jpg	0	0.0	0	80.2917954791337	80.3417790464591	0.0499835673253983	43781
43.881	50	200	0	0	knob	882	200	0	stimuli\knob\knob_10s.jpg	9	-1	0	0	knob_10s.jpg	0	0.0	0	80.3918006479507	80.44178226473741	0.0499816167866811	43881
43.981	50	201	0	0	lavender	904	201	0	stimuli\lavender\lavender_10s.jpg	9	-1	0	0	lavender_10s.jpg	0	0.0	0	80.4917997213779	80.5417808506172	0.0499811292393133	43981
44.081	50	202	0	0	tomato	1672	202	0	stimuli\tomato\tomato_12s.jpg	11	-1	0	0	tomato_12s.jpg	0	0.0	0	80.5917978197103	80.64178455644291	0.0499867367325351	44081
44.181	50	203	0	0	bottle	170	203	0	stimuli\bottle\bottle_01b.jpg	0	-1	0	0	bottle_01b.jpg	0	0.0	0	80.6918042075122	80.7417858242989	0.0499816167866811	44181
44.281	50	204	0	0	corkboard	410	204	0	stimuli\corkboard\corkboard_06s.jpg	5	-1	0	0	corkboard_06s.jpg	0	0.0	0	80.7917947476963	80.84177173208451	0.049976984388195	44281
44.381	50	205	0	0	pretzel	1239	205	0	stimuli\pretzel\pretzel_04s.jpg	3	-1	0	0	pretzel_04s.jpg	0	0.0	0	80.8918011354981	80.94177397515159	0.049972839653492	44381
44.481	50	206	0	0	cufflink	458	206	0	stimuli\cufflink\cufflink_02s.jpg	1	-1	0	0	cufflink_02s.jpg	0	0.0	0	80.99179313855709	81.04177378013259	0.0499806415755302	44481
44.581	50	207	0	0	moose	1018	207	0	stimuli\moose\moose_03s.jpg	2	-1	0	0	moose_03s.jpg	0	0.0	0	81.0918024521088	81.1418030860368	0.0500006339279935	44581
44.681	50	208	0	0	mantle	969	208	0	stimuli\mantle\mantle_10s.jpg	9	-1	0	0	mantle_10s.jpg	0	0.0	0	81.19182054267729	81.2417997213779	0.0499791787005961	44681
44.781	50	209	0	0	tamale	1618	209	0	stimuli\tamale\tamale_02s.jpg	1	-1	0	0	tamale_02s.jpg	0	0.0	0	81.2918030372821	81.34181439876559	0.0500113614834845	44781
44.881	50	210	0	0	cherry	316	210	0	stimuli\cherry\cherry_05s.jpg	4	-1	0	0	cherry_05s.jpg	0	0.0	0	81.3918028421467	81.4417815332999	0.0499786911532283	44881
44.981	50	211	0	0	hip	780	211	0	stimuli\hip\hip_11s.jpg	10	-1	0	0	hip_11s.jpg	0	0.0	0	81.4918045975501	81.5417859705631	0.0499813730129972	44981
45.081	50	212	0	0	camper	249	212	0	stimuli\camper\camper_11s.jpg	10	-1	0	0	camper_11s.jpg	0	0.0	0	81.5918687682133	81.6417950403411	0.0499262721277773	45081
45.181	50	213	0	0	bunkbed	222	213	0	stimuli\bunkbed\bunkbed_03s.jpg	2	-1	0	0	bunkbed_03s.jpg	0	0.0	0	81.6918103027856	81.7417911881348	0.0499808853492141	45181
45.281	50	214	0	0	pita	1189	214	0	stimuli\pita\pita_12s.jpg	11	-1	0	0	pita_12s.jpg	0	0.0	0	81.7918118144153	81.8417895302409	0.049977715825661996	45281
45.381	50	215	0	0	snail	1476	215	0	stimuli\snail\snail_04s.jpg	3	-1	0	0	snail_04s.jpg	0	0.0	0	81.8918169831159	81.9417949427152	0.0499779595993459	45381
45.481	50	216	0	0	lightbulb	927	216	0	stimuli\lightbulb\lightbulb_02s.jpg	1	-1	0	0	lightbulb_02s.jpg	0	0.0	0	81.9918155689957	82.0417945039226	0.0499789349269122	45481
45.581	50	217	0	0	rollerblade	1326	217	0	stimuli\rollerblade\rollerblade_05s.jpg	4	-1	0	0	rollerblade_05s.jpg	0	0.0	0	82.09184511867349	82.141821859288	0.0499767406145111	45581
45.681	50	218	0	0	yolk	1850	218	0	stimuli\yolk\yolk_09s.jpg	8	-1	0	0	yolk_09s.jpg	0	0.0	0	82.191828588373	82.2418228832539	0.0499942948808894	45681
45.781	50	219	0	0	smoke_alarm	1473	219	0	stimuli\smoke_alarm\smoke_alarm_06s.jpg	5	-1	0	0	smoke_alarm_06s.jpg	0	0.0	0	82.2918483857065	82.34182805207091	0.0499796663643792	45781
45.881	50	220	0	0	latch	900	220	0	stimuli\latch\latch_11s.jpg	10	-1	0	0	latch_11s.jpg	0	0.0	0	82.3918518478749	82.4418132284191	0.0499613805441186	45881
45.981	50	221	0	0	neck	1053	221	0	stimuli\neck\neck_11s.jpg	10	-1	0	0	neck_11s.jpg	0	0.0	0	82.4918511651922	82.5418305876665	0.04997942247428	45981
46.081	50	222	0	0	snowshoe	1485	222	0	stimuli\snowshoe\snowshoe_01b.jpg	0	-1	0	0	snowshoe_01b.jpg	0	0.0	0	82.59185584634541	82.64182283449921	0.0499669881537557	46081
46.181	50	223	0	0	bra	185	223	0	stimuli\bra\bra_08s.jpg	7	-1	0	0	bra_08s.jpg	0	0.0	0	82.6918354150839	82.7418160566594	0.0499806415755302	46181
46.281	50	224	0	0	slime	1465	224	0	stimuli\slime\slime_02s.jpg	1	-1	0	0	slime_02s.jpg	0	0.0	0	82.79185935715209	82.8418443872361	0.0499850300839171	46281
46.381	50	225	0	0	mandolin	965	225	0	stimuli\mandolin\mandolin_04s.jpg	3	-1	0	0	mandolin_04s.jpg	0	0.0	0	82.89186038111801	82.9418429731159	0.0499825919978321	46381
46.481	50	226	0	0	perfume	1154	226	0	stimuli\perfume\perfume_12s.jpg	11	-1	0	0	perfume_12s.jpg	0	0.0	0	82.9918640870601	83.0418418028858	0.049977715825661996	46481
46.581	50	227	0	0	hotplate	806	227	0	stimuli\hotplate\hotplate_07n.jpg	6	-1	0	0	hotplate_07n.jpg	0	0.0	0	83.0918670615647	83.14184648403901	0.04997942247428	46581
46.681	50	228	0	0	hairspray	738	228	0	stimuli\hairspray\hairspray_07s.jpg	6	-1	0	0	hairspray_07s.jpg	0	0.0	0	83.1918661349919	83.2418528718408	0.0499867368489504	46681
46.781	50	229	0	0	lingerie	932	229	0	stimuli\lingerie\lingerie_05s.jpg	4	-1	0	0	lingerie_05s.jpg	0	0.0	0	83.2918605762534	83.34185633389279	0.0499957576394081	46781
46.881	50	230	0	0	cupcake	461	230	0	stimuli\cupcake\cupcake_03s.jpg	2	-1	0	0	cupcake_03s.jpg	0	0.0	0	83.3918611125555	83.4418295637006	0.0499684511451051	46881
46.981	50	231	0	0	beanie	104	231	0	stimuli\beanie\beanie_10s.jpg	9	-1	0	0	beanie_10s.jpg	0	0.0	0	83.4918757899432	83.5418422905495	0.0499665006063879	46981
47.081	50	232	0	0	vent	1758	232	0	stimuli\vent\vent_08s.jpg	7	-1	0	0	vent_08s.jpg	0	0.0	0	83.5918799834326	83.6418445335003	0.0499645500676706	47081
47.181	50	233	0	0	bead	100	233	0	stimuli\bead\bead_06s.jpg	5	-1	0	0	bead_06s.jpg	0	0.0	0	83.69188247027341	83.74185092130209	0.0499684510286897	47181
47.281	50	234	0	0	trashcan	1704	234	0	stimuli\trashcan\trashcan_03s.jpg	2	-1	0	0	trashcan_03s.jpg	0	0.0	0	83.7918830066919	83.8418541395804	0.0499711328884587	47281
47.381	50	235	0	0	butter	228	235	0	stimuli\butter\butter_04s.jpg	3	-1	0	0	butter_04s.jpg	0	0.0	0	83.89186647639141	83.9418449236546	0.0499784472631291	47381
47.481	50	236	0	0	bungee	221	236	0	stimuli\bungee\bungee_08s.jpg	7	-1	0	0	bungee_08s.jpg	0	0.0	0	83.99186945089599	84.0418481419329	0.049978691036812996	47481
47.581	50	237	0	0	crank	432	237	0	stimuli\crank\crank_07s.jpg	6	-1	0	0	crank_07s.jpg	0	0.0	0	84.0918736443855	84.1418545297347	0.0499808853492141	47581
47.681	50	238	0	0	trombone	1716	238	0	stimuli\trombone\trombone_08s.jpg	7	-1	0	0	trombone_08s.jpg	0	0.0	0	84.1918710112805	84.2418511651922	0.049980153911747004	47681
47.781	50	239	0	0	aircraft_carrier	9	239	0	stimuli\aircraft_carrier\aircraft_carrier_01b.jpg	0	-1	0	0	aircraft_carrier_01b.jpg	0	0.0	0	84.29187398566859	84.34185633389279	0.0499823482241482	47781
47.881	50	240	0	0	torch	1683	240	0	stimuli\torch\torch_01b.jpg	0	-1	0	0	torch_01b.jpg	0	0.0	0	84.3919071925338	84.44188051973471	0.0499733272008598	47881
47.981	50	241	0	0	pot	1230	241	0	stimuli\pot\pot_06s.jpg	5	-1	0	0	pot_06s.jpg	0	0.0	0	84.4919009022415	84.541881543817	0.0499806415755302	47981
48.081	50	242	0	0	pump	1252	242	0	stimuli\pump\pump_10s.jpg	9	-1	0	0	pump_10s.jpg	0	0.0	0	84.59190387674609	84.6418715963373	0.0499677195912227	48081
48.181	50	243	0	0	baby	46	243	0	stimuli\baby\baby_04s.jpg	3	-1	0	0	baby_04s.jpg	0	0.0	0	84.6919070950244	84.7418877365999	0.0499806415755302	48181
48.281	50	244	0	0	ruler	1341	244	0	stimuli\ruler\ruler_03s.jpg	2	-1	0	0	ruler_03s.jpg	0	0.0	0	84.7919090942014	84.8418916861992	0.0499825919978321	48281
48.381	50	245	0	0	handbrake	745	245	0	stimuli\handbrake\handbrake_03s.jpg	2	-1	0	0	handbrake_03s.jpg	0	0.0	0	84.8919110934949	84.94189246639141	0.0499813728965819	48381
48.481	50	246	0	0	lab_coat	885	246	0	stimuli\lab_coat\lab_coat_12s.jpg	11	-1	0	0	lab_coat_12s.jpg	0	0.0	0	84.9918970012804	85.0418934904737	0.0499964891932905	48481
48.581	50	247	0	0	orchid	1081	247	0	stimuli\orchid\orchid_06s.jpg	5	-1	0	0	orchid_06s.jpg	0	0.0	0	85.09191509196529	85.14190280390899	0.049987711943686	48581
48.681	50	248	0	0	brake	191	248	0	stimuli\brake\brake_06s.jpg	5	-1	0	0	brake_06s.jpg	0	0.0	0	85.1919022188522	85.24190114601521	0.0499989271629602	48681
48.781	50	249	0	0	stake	1533	249	0	stimuli\stake\stake_09s.jpg	8	-1	0	0	stake_09s.jpg	0	0.0	0	85.2919061685679	85.3418885166757	0.0499823481077328	48781
48.881	50	250	0	0	stem	1547	250	0	stimuli\stem\stem_09s.jpg	8	-1	0	0	stem_09s.jpg	0	0.0	0	85.3919020724716	85.4418812511722	0.0499791787005961	48881
48.981	50	251	0	0	poster	1229	251	0	stimuli\poster\poster_09s.jpg	8	-1	0	0	poster_09s.jpg	0	0.0	0	85.4919048032025	85.54188349423929	0.049978691036812996	48981
49.081	50	252	0	0	mousetrap	1029	252	0	stimuli\mousetrap\mousetrap_09s.jpg	8	-1	0	0	mousetrap_09s.jpg	0	0.0	0	85.5919070462696	85.64188866305629	0.0499816167866811	49081
49.181	50	253	0	0	turbine	1731	253	0	stimuli\turbine\turbine_11s.jpg	10	-1	0	0	turbine_11s.jpg	0	0.0	0	85.6919117274228	85.7418933442095	0.0499816167866811	49181
49.281	50	254	0	0	triangle	1710	254	0	stimuli\triangle\triangle_04s.jpg	3	-1	0	0	triangle_04s.jpg	0	0.0	0	85.79191421426371	85.84192045568491	0.0500062414212152	49281
49.381	50	255	0	0	thimble	1649	255	0	stimuli\thimble\thimble_07s.jpg	6	-1	0	0	thimble_07s.jpg	0	0.0	0	85.891923527699	85.9418817388359	0.0499582111369818	49381
49.481	50	256	0	0	mouse2	1027	256	0	stimuli\mouse2\mouse2_12s.jpg	11	-1	0	0	mouse2_12s.jpg	0	0.0	0	85.99190626607741	86.04188910184891	0.049982835771516	49481
49.581	50	257	0	0	dagger	469	257	0	stimuli\dagger\dagger_08s.jpg	7	-1	0	0	dagger_08s.jpg	0	0.0	0	86.0919131414266	86.1418923201272	0.0499791787005961	49581
49.681	50	258	0	0	gauge	663	258	0	stimuli\gauge\gauge_07s.jpg	6	-1	0	0	gauge_07s.jpg	0	0.0	0	86.19194391020571	86.241924795555	0.0499808853492141	49681
49.781	50	259	0	0	omelet	1076	259	0	stimuli\omelet\omelet_05s.jpg	4	-1	0	0	omelet_05s.jpg	0	0.0	0	86.29194615327292	86.34192703862209	0.0499808853492141	49781
49.881	50	260	0	0	holster	786	260	0	stimuli\holster\holster_11s.jpg	10	-1	0	0	holster_11s.jpg	0	0.0	0	86.3919308419572	86.4419095331104	0.0499786911532283	49881
49.981	50	261	0	0	toilet_paper	1671	261	0	stimuli\toilet_paper\toilet_paper_10s.jpg	9	-1	0	0	toilet_paper_10s.jpg	0	0.0	0	86.491932597477	86.5419125074986	0.0499799100216478	49981
50.081	50	262	0	0	notebook	1064	262	0	stimuli\notebook\notebook_09s.jpg	8	-1	0	0	notebook_09s.jpg	0	0.0	0	86.5919548327802	86.641936693457	0.0499818606767803	50081
50.181	50	263	0	0	roller_coaster	1325	263	0	stimuli\roller_coaster\roller_coaster_08s.jpg	7	-1	0	0	roller_coaster_08s.jpg	0	0.0	0	86.6919402530184	86.74193893652408	0.0499986835056916	50181
50.281	50	264	0	0	cookie_cutter	401	264	0	stimuli\cookie_cutter\cookie_cutter_08s.jpg	7	-1	0	0	cookie_cutter_08s.jpg	0	0.0	0	86.7919600503519	86.84193996049	0.0499799101380631	50281
50.381	50	265	0	0	almond	13	265	0	stimuli\almond\almond_12s.jpg	11	-1	0	0	almond_12s.jpg	0	0.0	0	86.89196278096641	86.9419417158933	0.0499789349269122	50381
50.481	50	266	0	0	fire_pit	593	266	0	stimuli\fire_pit\fire_pit_07s.jpg	6	-1	0	0	fire_pit_07s.jpg	0	0.0	0	86.99196502403359	87.04192933044399	0.0499643064104021	50481
50.581	50	267	0	0	punch2	1255	267	0	stimuli\punch2\punch2_01b.jpg	0	-1	0	0	punch2_01b.jpg	0	0.0	0	87.0919672671007	87.1419503467623	0.0499830796616152	50581
50.681	50	268	0	0	flamethrower	607	268	0	stimuli\flamethrower\flamethrower_02s.jpg	1	-1	0	0	flamethrower_02s.jpg	0	0.0	0	87.19197438634001	87.24195088318079	0.0499764968408272	50681
50.781	50	269	0	0	bonnet	163	269	0	stimuli\bonnet\bonnet_05s.jpg	4	-1	0	0	bonnet_05s.jpg	0	0.0	0	87.2919695589226	87.3419394728262	0.0499699139036238	50781
50.881	50	270	0	0	springboard	1522	270	0	stimuli\springboard\springboard_11s.jpg	10	-1	0	0	springboard_11s.jpg	0	0.0	0	87.3919576610206	87.44195756351108	0.0499999024905264	50881
50.981	50	271	0	0	gargoyle	657	271	0	stimuli\gargoyle\gargoyle_01b.jpg	0	-1	0	0	gargoyle_01b.jpg	0	0.0	0	87.4919767269166	87.54195883125071	0.0499821043340489	50981
51.081	50	272	0	0	iguana	825	272	0	stimuli\iguana\iguana_02s.jpg	1	-1	0	0	iguana_02s.jpg	0	0.0	0	87.5919850651408	87.6419486401137	0.04996357497293499	51081
51.181	50	273	0	0	thermos	1647	273	0	stimuli\thermos\thermos_04s.jpg	3	-1	0	0	thermos_04s.jpg	0	0.0	0	87.6919819443719	87.74196916876829	0.0499872243963182	51181
51.281	50	274	0	0	record	1295	274	0	stimuli\record\record_08s.jpg	7	-1	0	0	record_08s.jpg	0	0.0	0	87.791967852274	87.8419665356632	0.0499986833892763	51281
51.381	50	275	0	0	sunglasses	1585	275	0	stimuli\sunglasses\sunglasses_11s.jpg	10	-1	0	0	sunglasses_11s.jpg	0	0.0	0	87.89197667816191	87.9419456168544	0.0499689386924729	51381
51.481	50	276	0	0	sunflower	1584	276	0	stimuli\sunflower\sunflower_08s.jpg	7	-1	0	0	sunflower_08s.jpg	0	0.0	0	87.9919662431348	88.04196858371141	0.0500023405766115	51481
51.581	50	277	0	0	parking_meter	1120	277	0	stimuli\parking_meter\parking_meter_05s.jpg	4	-1	0	0	parking_meter_05s.jpg	0	0.0	0	88.0919935985003	88.1419735086383	0.0499799101380631	51581
51.681	50	278	0	0	jumpsuit	859	278	0	stimuli\jumpsuit\jumpsuit_07s.jpg	6	-1	0	0	jumpsuit_07s.jpg	0	0.0	0	88.1920007177396	88.2419747763779	0.0499740586383268	51681
51.781	50	279	0	0	sprouts	1524	279	0	stimuli\sprouts\sprouts_03s.jpg	2	-1	0	0	sprouts_03s.jpg	0	0.0	0	88.29199686553329	88.34198457759341	0.0499877120601013	51781
51.881	50	280	0	0	hash	756	280	0	stimuli\hash\hash_11s.jpg	10	-1	0	0	hash_11s.jpg	0	0.0	0	88.3919995961478	88.44197975017599	0.0499801540281624	51881
51.981	50	281	0	0	sponge	1517	281	0	stimuli\sponge\sponge_07s.jpg	6	-1	0	0	sponge_07s.jpg	0	0.0	0	88.4920132983243	88.5419676083839	0.0499543100595474	51981
52.081	50	282	0	0	sundae	1582	282	0	stimuli\sundae\sundae_03s.jpg	2	-1	0	0	sundae_03s.jpg	0	0.0	0	88.59200530138331	88.6419839924201	0.049978691036812996	52081
52.181	50	283	0	0	net	1057	283	0	stimuli\net\net_10s.jpg	9	-1	0	0	net_10s.jpg	0	0.0	0	88.69200778822409	88.7419894050108	0.0499816167866811	52181
52.281	50	284	0	0	flour	618	284	0	stimuli\flour\flour_05s.jpg	4	-1	0	0	flour_05s.jpg	0	0.0	0	88.79200783697891	88.8419906727504	0.049982835771516	52281
52.381	50	285	0	0	raisin	1280	285	0	stimuli\raisin\raisin_11s.jpg	10	-1	0	0	raisin_11s.jpg	0	0.0	0	88.89201446855441	88.9419912091689	0.0499767406145111	52381
52.481	50	286	0	0	wallet	1776	286	0	stimuli\wallet\wallet_11s.jpg	10	-1	0	0	wallet_11s.jpg	0	0.0	0	88.99201378587169	89.04198394366541	0.049970157793723	52481
52.581	50	287	0	0	typewriter	1741	287	0	stimuli\typewriter\typewriter_03s.jpg	2	-1	0	0	typewriter_03s.jpg	0	0.0	0	89.0920184670249	89.14200227812401	0.0499838110990822	52581
52.681	50	288	0	0	rose	1334	288	0	stimuli\rose\rose_05s.jpg	4	-1	0	0	rose_05s.jpg	0	0.0	0	89.1920192472171	89.2419840411749	0.0499647939577699	52681
52.781	50	289	0	0	buoy	223	289	0	stimuli\buoy\buoy_07s.jpg	6	-1	0	0	buoy_07s.jpg	0	0.0	0	89.2920207588468	89.3420048137195	0.0499840548727661	52781
52.882	50	290	0	0	cookie	400	290	0	stimuli\cookie\cookie_10s.jpg	9	-1	0	0	cookie_10s.jpg	0	0.0	0	89.3920271466486	89.4420041310368	0.049976984388195	52882
52.982	50	291	0	0	wing	1827	291	0	stimuli\wing\wing_04s.jpg	3	-1	0	0	wing_04s.jpg	0	0.0	0	89.4920257325284	89.5420080807526	0.0499823482241482	52982
53.082	50	292	0	0	hat	757	292	0	stimuli\hat\hat_06s.jpg	5	-1	0	0	hat_06s.jpg	0	0.0	0	89.59201383462641	89.64201032381969	0.0499964891932905	53082
53.182	50	293	0	0	helicopter	775	293	0	stimuli\helicopter\helicopter_05s.jpg	4	-1	0	1	helicopter_05s.jpg	0	0.0	0	89.69203485106121	89.7419950126205	0.0499601615592837	53182
53.282	50	294	0	0	platypus	1198	294	0	stimuli\platypus\platypus_06s.jpg	5	-1	0	0	platypus_06s.jpg	0	0.0	0	89.7920348998159	89.842015541275	0.0499806414591148	53282
53.382	50	295	0	0	fox	638	295	0	stimuli\fox\fox_10s.jpg	9	-1	0	0	fox_10s.jpg	0	0.0	0	89.89203763043041	89.94200705678671	0.049969426356256	53382
53.482	50	296	0	0	cot	420	296	0	stimuli\cot\cot_01b.jpg	0	-1	0	0	cot_01b.jpg	0	0.0	0	89.99203865439631	90.0420239283703	0.0499852739740163	53482
53.582	50	297	0	0	firecracker	594	297	0	stimuli\firecracker\firecracker_12s.jpg	11	-1	0	0	firecracker_12s.jpg	1	0.400170373846777	1	90.0920445546508	90.142029340961	0.0499847863102332	53582
53.682	50	298	0	0	humvee	813	298	0	stimuli\humvee\humvee_12s.jpg	11	-1	0	0	humvee_12s.jpg	0	0.0	0	90.1920285120141	90.24202768306709	0.0499991710530594	53682
53.782	50	299	0	0	sunroof	1586	299	0	stimuli\sunroof\sunroof_05s.jpg	4	-1	0	0	sunroof_05s.jpg	0	0.0	0	90.292033436941	90.342032607994	0.0499991710530594	53782
53.882	50	300	0	0	hole	785	300	0	stimuli\hole\hole_10s.jpg	9	-1	0	0	hole_10s.jpg	0	0.0	0	90.3920517713996	90.4420304624364	0.049978691036812996	53882
53.982	50	301	0	0	seed	1401	301	0	stimuli\seed\seed_10s.jpg	9	-1	0	0	seed_10s.jpg	0	0.0	0	90.4920518201543	90.5420149074635	0.0499630873091519	53982
54.082	50	302	0	0	oil	1072	302	0	stimuli\oil\oil_06s.jpg	5	-1	0	0	oil_06s.jpg	0	0.0	0	90.5920379717136	90.64203494857071	0.0499969768570736	54082
54.182	50	303	0	0	sheep	1414	303	0	stimuli\sheep\sheep_07s.jpg	6	-1	0	0	sheep_07s.jpg	0	0.0	0	90.6920570376096	90.74204304302108	0.0499860054114833	54182
54.282	50	304	0	0	soda_fountain	1491	304	0	stimuli\soda_fountain\soda_fountain_10s.jpg	9	-1	0	0	soda_fountain_10s.jpg	0	0.0	0	90.7920587931294	90.8420406536898	0.049981860560364993	54282
54.382	50	305	0	0	veil	1755	305	0	stimuli\veil\veil_11s.jpg	10	-1	0	0	veil_11s.jpg	0	0.0	0	90.8920520151732	90.9420209538657	0.0499689386924729	54382
54.482	50	306	0	0	scorpion	1384	306	0	stimuli\scorpion\scorpion_09s.jpg	8	-1	0	0	scorpion_09s.jpg	0	0.0	0	90.99204353056851	91.04204587114509	0.0500023405766115	54482
54.582	50	307	0	0	praying_mantis	1238	307	0	stimuli\praying_mantis\praying_mantis_07s.jpg	6	-1	0	0	praying_mantis_07s.jpg	0	0.0	0	91.0920701546129	91.14205030852459	0.049980153911747004	54582
54.682	50	308	0	0	stockings	1559	308	0	stimuli\stockings\stockings_02s.jpg	1	-1	0	0	stockings_02s.jpg	0	0.0	0	91.19206898426641	91.2420508449432	0.0499818606767803	54682
63.798	50	309	0	0	hammer	741	0	1	stimuli\hammer\hammer_01b.jpg	0	-1	1	0	hammer_01b.jpg	0	0.0	0	100.30895720853	100.358926390996	0.0499691824661568	63798
63.898	50	310	0	0	school_bus	1378	1	1	stimuli\school_bus\school_bus_11s.jpg	10	-1	1	0	school_bus_11s.jpg	0	0.0	0	100.40894701727699	100.458943018806	0.0499960015295073	63898
63.998	50	311	0	0	kitten	875	2	1	stimuli\kitten\kitten_03s.jpg	2	-1	1	0	kitten_03s.jpg	0	0.0	0	100.50896388886	100.558947943733	0.0499840548727661	63998
64.098	50	312	0	0	suspenders	1589	3	1	stimuli\suspenders\suspenders_12s.jpg	11	-1	1	0	suspenders_12s.jpg	0	0.0	0	100.60896296240401	100.65894799248801	0.0499850300839171	64098
64.198	50	313	0	0	minivan	1003	4	1	stimuli\minivan\minivan_01b.jpg	0	-1	1	0	minivan_01b.jpg	0	0.0	0	100.708952527377	100.75894974789101	0.0499972205143422	64198
64.298	50	314	0	0	origami	1083	5	1	stimuli\origami\origami_08s.jpg	7	-1	1	0	origami_08s.jpg	0	0.0	0	100.80897915130501	100.858961011982	0.0499818606767803	64298
64.398	50	315	0	0	mulch	1038	6	1	stimuli\mulch\mulch_09s.jpg	8	-1	1	0	mulch_09s.jpg	0	0.0	0	100.908980906708	100.958983247285	0.0500023405766115	64398
64.498	50	316	0	0	bookshelf	167	7	1	stimuli\bookshelf\bookshelf_04s.jpg	3	-1	1	0	bookshelf_04s.jpg	0	0.0	0	101.008983637439	101.058949650382	0.0499660129426047	64498
64.598	50	317	0	0	eggplant	550	8	1	stimuli\eggplant\eggplant_03s.jpg	2	-1	1	0	eggplant_03s.jpg	0	0.0	0	101.108970276662	101.158968472504	0.0499981958419085	64598
64.698	50	318	0	0	chipmunk	334	9	1	stimuli\chipmunk\chipmunk_11s.jpg	10	-1	1	0	chipmunk_11s.jpg	0	0.0	0	101.20897788356501	101.258954867953	0.049976984388195	64698
64.798	50	319	0	0	blind	140	10	1	stimuli\blind\blind_06s.jpg	5	-1	1	0	blind_06s.jpg	0	0.0	0	101.308975981781	101.358952722396	0.0499767406145111	64798
64.898	50	320	0	0	mosquito	1020	11	1	stimuli\mosquito\mosquito_01b.jpg	0	-1	1	0	mosquito_01b.jpg	0	0.0	0	101.408978712512	101.45897910254999	0.0500003900378942	64898
64.998	50	321	0	0	space_shuttle	1501	12	1	stimuli\space_shuttle\space_shuttle_10s.jpg	9	-1	1	0	space_shuttle_10s.jpg	0	0.0	0	101.508995584096	101.558975250344	0.0499796662479639	64998
65.098	50	322	0	0	elephant	554	13	1	stimuli\elephant\elephant_05n.jpg	4	-1	1	0	elephant_05n.jpg	0	0.0	0	101.608999777585	101.658980419161	0.0499806415755302	65098
65.198	50	323	0	0	stuffing	1575	14	1	stimuli\stuffing\stuffing_08s.jpg	7	-1	1	0	stuffing_08s.jpg	0	0.0	0	101.709001045441	101.75897095934499	0.0499699139036238	65198
65.298	50	324	0	0	calamari	239	15	1	stimuli\calamari\calamari_07s.jpg	6	-1	1	0	calamari_07s.jpg	0	0.0	0	101.808984027477	101.858958573896	0.0499745464185253	65298
65.398	50	325	0	0	raincoat	1279	16	1	stimuli\raincoat\raincoat_07s.jpg	6	-1	1	0	raincoat_07s.jpg	0	0.0	0	101.90898432012199	101.958964961697	0.0499806415755302	65398
65.498	50	326	0	0	exerciser	561	17	1	stimuli\exerciser\exerciser_04s.jpg	3	-1	1	0	exerciser_04s.jpg	0	0.0	0	102.008986075525	102.058966473211	0.0499803976854309	65498
65.598	50	327	0	0	firewood	597	18	1	stimuli\firewood\firewood_10s.jpg	9	-1	1	0	firewood_10s.jpg	0	0.0	0	102.108989781467	102.158971642028	0.049981860560364993	65598
65.698	50	328	0	0	squeegee	1527	19	1	stimuli\squeegee\squeegee_05s.jpg	4	-1	1	0	squeegee_05s.jpg	0	0.0	0	102.209022988216	102.258983149775	0.0499601615592837	65698
65.798	50	329	0	0	mouthpiece	1032	20	1	stimuli\mouthpiece\mouthpiece_02s.jpg	1	-1	1	0	mouthpiece_02s.jpg	0	0.0	0	102.30899816844601	102.358974421397	0.0499762529507279	65798
65.898	50	330	0	0	stamp2	1536	21	1	stimuli\stamp2\stamp2_04s.jpg	3	-1	1	0	stamp2_04s.jpg	0	0.0	0	102.409017478116	102.458999582566	0.0499821044504642	65898
65.998	50	331	0	0	eyeliner	567	22	1	stimuli\eyeliner\eyeliner_01s.jpg	0	-1	1	0	eyeliner_01s.jpg	0	0.0	0	102.509020696394	102.559003532282	0.0499828358879313	65998
66.098	50	332	0	0	recliner	1294	23	1	stimuli\recliner\recliner_07s.jpg	6	-1	1	0	recliner_07s.jpg	0	0.0	0	102.609022695688	102.659004068584	0.0499813728965819	66098
66.198	50	333	0	0	jeep	843	24	1	stimuli\jeep\jeep_02s.jpg	1	-1	1	0	jeep_02s.jpg	0	0.0	0	102.709025913966	102.75900728686199	0.0499813728965819	66198
66.298	50	334	0	0	dollhouse	500	25	1	stimuli\dollhouse\dollhouse_12s.jpg	11	-1	1	0	dollhouse_12s.jpg	0	0.0	0	102.80902742559601	102.859008067055	0.0499806414591148	66298
66.398	50	335	0	0	hamburger	740	26	1	stimuli\hamburger\hamburger_06s.jpg	5	-1	1	0	hamburger_06s.jpg	0	0.0	0	102.90901406481899	102.95901786827	0.0500038034515455	66398
66.498	50	336	0	0	domino	503	27	1	stimuli\domino\domino_03s.jpg	2	-1	1	0	domino_03s.jpg	0	0.0	0	103.009019964957	103.059015235049	0.0499952700920403	66498
66.598	50	337	0	0	doorbell	507	28	1	stimuli\doorbell\doorbell_05s.jpg	4	-1	1	0	doorbell_05s.jpg	0	0.0	0	103.10902025760201	103.159015771467	0.0499955138657242	66598
66.698	50	338	0	0	mud	1033	29	1	stimuli\mud\mud_04s.jpg	3	-1	1	0	mud_04s.jpg	0	0.0	0	103.209036885411	103.25902313448	0.0499862490687519	66698
66.798	50	339	0	0	lizard	937	30	1	stimuli\lizard\lizard_12n.jpg	11	-1	1	0	lizard_12n.jpg	0	0.0	0	103.309043516987	103.359007335734	0.0499638187466189	66798
66.898	50	340	0	0	doormat	511	31	1	stimuli\doormat\doormat_05s.jpg	4	-1	1	0	doormat_05s.jpg	0	0.0	0	103.40904527239	103.459026401513	0.04998112912289799	66898
66.999	50	341	0	0	wineglass	1826	32	1	stimuli\wineglass\wineglass_09s.jpg	8	-1	1	0	wineglass_09s.jpg	0	0.0	0	103.509051172528	103.559029619792	0.0499784472631291	66999
67.098	50	342	0	0	poodle	1221	33	1	stimuli\poodle\poodle_06s.jpg	5	-1	1	0	poodle_06s.jpg	0	0.0	0	103.609033910907	103.659013821045	0.0499799101380631	67098
67.199	50	343	0	0	olive	1075	34	1	stimuli\olive\olive_09s.jpg	8	-1	1	0	olive_09s.jpg	0	0.0	0	103.709054439561	103.759036787786	0.0499823482241482	67199
67.299	50	344	0	0	stove1	1563	35	1	stimuli\stove1\stove1_08s.jpg	7	-1	1	0	stove1_08s.jpg	0	0.0	0	103.80905400076901	103.85902830329701	0.0499743025284261	67299
67.399	50	345	0	0	harmonica	753	36	1	stimuli\harmonica\harmonica_02s.jpg	1	-1	1	0	harmonica_02s.jpg	0	0.0	0	103.90905965713301	103.959018843481	0.0499591863481328	67399
67.498	50	346	0	0	monkey	1017	37	1	stimuli\monkey\monkey_01b.jpg	0	-1	1	0	monkey_01b.jpg	0	0.0	0	104.00903849455099	104.059015478939	0.049976984388195	67498
67.598	50	347	0	0	bullet	216	38	1	stimuli\bullet\bullet_02s.jpg	1	-1	1	0	bullet_02s.jpg	0	0.0	0	104.10903976229	104.15902162285101	0.049981860560364993	67598
67.699	50	348	0	0	terrarium	1644	39	1	stimuli\terrarium\terrarium_03s.jpg	2	-1	1	0	terrarium_03s.jpg	0	0.0	0	104.20906955574199	104.25904361449601	0.0499740587547421	67699
67.799	50	349	0	0	hook2	794	40	1	stimuli\hook2\hook2_03s.jpg	2	-1	1	0	hook2_03s.jpg	0	0.0	0	104.309069116949	104.359030009946	0.0499608929967508	67799
67.899	50	350	0	0	boulder	172	41	1	stimuli\boulder\boulder_09s.jpg	8	-1	1	0	boulder_09s.jpg	0	0.0	0	104.40907160379	104.459056877764	0.0499852739740163	67899
67.999	50	351	0	0	rug	1340	42	1	stimuli\rug\rug_06s.jpg	5	-1	1	0	rug_06s.jpg	0	0.0	0	104.509075797279	104.559051806456	0.049976009177044006	67999
68.099	50	352	0	0	clam	349	43	1	stimuli\clam\clam_02s.jpg	1	-1	1	0	clam_02s.jpg	0	0.0	0	104.609073651838	104.65904015244499	0.0499665006063879	68099
68.199	50	353	0	0	pheasant	1160	44	1	stimuli\pheasant\pheasant_11s.jpg	10	-1	1	0	pheasant_11s.jpg	0	0.0	0	104.709080527187	104.759056292591	0.0499757654033601	68199
68.299	50	354	0	0	station_wagon	1542	45	1	stimuli\station_wagon\station_wagon_01b.jpg	0	-1	1	0	station_wagon_01b.jpg	0	0.0	0	104.809076674981	104.859044150915	0.0499674759339541	68299
68.399	50	355	0	0	baton1	92	46	1	stimuli\baton1\baton1_03s.jpg	2	-1	1	0	baton1_03s.jpg	0	0.0	0	104.90907989325899	104.959063460585	0.0499835673253983	68399
68.499	50	356	0	0	yak	1845	47	1	stimuli\yak\yak_02s.jpg	1	-1	1	0	yak_02s.jpg	0	0.0	0	105.00908311153799	105.05906399688699	0.0499808853492141	68499
68.599	50	357	0	0	axe	45	48	1	stimuli\axe\axe_12n.jpg	11	-1	1	0	axe_12n.jpg	0	0.0	0	105.10908730514299	105.159066239954	0.0499789348104969	68599
68.699	50	358	0	0	pug	1249	49	1	stimuli\pug\pug_08s.jpg	7	-1	1	0	pug_08s.jpg	0	0.0	0	105.209094668156	105.25907018966998	0.0499755215132609	68699
68.799	50	359	0	0	comic_book	391	50	1	stimuli\comic_book\comic_book_11s.jpg	10	-1	1	0	comic_book_11s.jpg	0	0.0	0	105.309075455996	105.359070482315	0.0499950263183564	68799
68.899	50	360	0	0	seesaw	1402	51	1	stimuli\seesaw\seesaw_02s.jpg	1	-1	1	0	seesaw_02s.jpg	0	0.0	0	105.409094034228	105.45907808910101	0.0499840548727661	68899
68.999	50	361	0	0	earwig	541	52	1	stimuli\earwig\earwig_08n.jpg	7	-1	1	1	earwig_08n.jpg	0	0.0	0	105.50907921057699	105.55904595507299	0.0499667444964871	68999
69.099	50	362	0	0	bowler_hat	178	53	1	stimuli\bowler_hat\bowler_hat_02s.jpg	1	-1	1	0	bowler_hat_02s.jpg	0	0.0	0	105.60906877555	105.659043321968	0.0499745464185253	69099
69.199	50	363	0	0	breadbox	195	54	1	stimuli\breadbox\breadbox_03s.jpg	2	-1	1	0	breadbox_03s.jpg	0	0.0	0	105.709073456703	105.759085793514	0.0500123368110508	69199
69.299	50	364	0	0	loveseat	947	55	1	stimuli\loveseat\loveseat_08s.jpg	7	-1	1	0	loveseat_08s.jpg	1	0.306893607601523	1	105.809105200693	105.85909388796401	0.0499886872712523	69299
69.399	50	365	0	0	locker	941	56	1	stimuli\locker\locker_11n.jpg	10	-1	1	0	locker_11n.jpg	0	0.0	0	105.90910719987	105.95908808533599	0.0499808854656294	69399
69.499	50	366	0	0	scaffolding	1370	57	1	stimuli\scaffolding\scaffolding_05s.jpg	4	-1	1	0	scaffolding_05s.jpg	0	0.0	0	106.00911163725	106.059096179786	0.0499845425365493	69499
69.599	50	367	0	0	ferret	578	58	1	stimuli\ferret\ferret_09n.jpg	8	-1	1	0	ferret_09n.jpg	0	0.0	0	106.10911290510599	106.15907623618799	0.0499633310828358	69599
69.699	50	368	0	0	petri_dish	1159	59	1	stimuli\petri_dish\petri_dish_11s.jpg	10	-1	1	0	petri_dish_11s.jpg	0	0.0	0	106.20911368529801	106.259093351546	0.0499796662479639	69699
69.799	50	369	0	0	bracket	189	60	1	stimuli\bracket\bracket_08s.jpg	7	-1	1	0	bracket_08s.jpg	0	0.0	0	106.309115684475	106.35909876413601	0.0499830796616152	69799
69.899	50	370	0	0	teddy_bear	1635	61	1	stimuli\teddy_bear\teddy_bear_05s.jpg	4	-1	1	0	teddy_bear_05s.jpg	0	0.0	0	106.409121584613	106.459093205282	0.0499716206686571	69899
69.999	50	371	0	0	propeller	1243	62	1	stimuli\propeller\propeller_08s.jpg	7	-1	1	0	propeller_08s.jpg	0	0.0	0	106.509102128679	106.55908179504299	0.0499796663643792	69999
70.099	50	372	0	0	hail	732	63	1	stimuli\hail\hail_07s.jpg	6	-1	1	0	hail_07s.jpg	0	0.0	0	106.60910461552	106.659084525658	0.0499799101380631	70099
70.199	50	373	0	0	router	1336	64	1	stimuli\router\router_04s.jpg	3	-1	1	0	router_04s.jpg	0	0.0	0	106.709108321462	106.759085793514	0.0499774720519781	70199
70.299	50	374	0	0	blackberry	135	65	1	stimuli\blackberry\blackberry_07s.jpg	6	-1	1	0	blackberry_07s.jpg	0	0.0	0	106.80910983309099	106.85908145364401	0.0499716205522418	70299
70.399	50	375	0	0	garbage	655	66	1	stimuli\garbage\garbage_10s.jpg	9	-1	1	0	garbage_10s.jpg	0	0.0	0	106.909116220893	106.959117342369	0.0500011214753613	70399
70.499	50	376	0	0	baseball_bat	79	67	1	stimuli\baseball_bat\baseball_bat_09s.jpg	8	-1	1	0	baseball_bat_09s.jpg	0	0.0	0	107.00913894386	107.059113734053	0.0499747901922092	70499
70.599	50	377	0	0	bottle_opener	171	68	1	stimuli\bottle_opener\bottle_opener_01b.jpg	0	-1	1	0	bottle_opener_01b.jpg	0	0.0	0	107.10912216978599	107.159115977003	0.0499938072171062	70599
70.699	50	378	0	0	cashew	281	69	1	stimuli\cashew\cashew_07s.jpg	6	-1	1	0	cashew_07s.jpg	0	0.0	0	107.209138553822	107.259120658156	0.0499821043340489	70699
70.799	50	379	0	0	ruby	1338	70	1	stimuli\ruby\ruby_10s.jpg	9	-1	1	0	ruby_10s.jpg	0	0.0	0	107.30914079689	107.359127777396	0.049986980506219	70799
70.899	50	380	0	0	handprint	750	71	1	stimuli\handprint\handprint_01b.jpg	0	-1	1	0	handprint_01b.jpg	0	0.0	0	107.409146940801	107.459126850939	0.0499799101380631	70899
70.999	50	381	0	0	board_game	153	72	1	stimuli\board_game\board_game_04s.jpg	3	-1	1	0	board_game_04s.jpg	0	0.0	0	107.509149427642	107.55911105207599	0.0499616244342178	70999
71.099	50	382	0	0	dandelion	472	73	1	stimuli\dandelion\dandelion_07s.jpg	6	-1	1	0	dandelion_07s.jpg	0	0.0	0	107.609150695498	107.65912987419901	0.0499791787005961	71099
71.199	50	383	0	0	barnacle	75	74	1	stimuli\barnacle\barnacle_12n.jpg	11	-1	1	0	barnacle_12n.jpg	0	0.0	0	107.70915245090099	107.759132848703	0.0499803978018463	71199
71.299	50	384	0	0	possum	1228	75	1	stimuli\possum\possum_12s.jpg	11	-1	1	0	possum_12s.jpg	0	0.0	0	107.80915420630501	107.859132897458	0.0499786911532283	71299
71.399	50	385	0	0	gallows	653	76	1	stimuli\gallows\gallows_01b.jpg	0	-1	1	0	gallows_01b.jpg	0	0.0	0	107.90914133319201	107.959127826151	0.0499864929588512	71399
71.499	50	386	0	0	crystal_ball	455	77	1	stimuli\crystal_ball\crystal_ball_10s.jpg	9	-1	1	0	crystal_ball_10s.jpg	0	0.0	0	108.009140162962	108.05911153974002	0.0499713767785579	71499
71.599	50	387	0	0	subway	1578	78	1	stimuli\subway\subway_03s.jpg	2	-1	1	0	subway_03s.jpg	0	0.0	0	108.109142649802	108.15912621701099	0.049983567208983004	71599
71.699	50	388	0	0	snowboard	1481	79	1	stimuli\snowboard\snowboard_01b.jpg	0	-1	1	0	snowboard_01b.jpg	0	0.0	0	108.209145624307	108.259128460079	0.049982835771516	71699
71.799	50	389	0	0	gel	669	80	1	stimuli\gel\gel_08s.jpg	7	-1	1	0	gel_08s.jpg	0	0.0	0	108.30914859869499	108.35913167835699	0.0499830796616152	71799
71.899	50	390	0	0	snow	1479	81	1	stimuli\snow\snow_02s.jpg	1	-1	1	0	snow_02s.jpg	0	0.0	0	108.40915084176201	108.459131970885	0.04998112912289799	71899
71.999	50	391	0	0	windshield_wiper	1821	82	1	stimuli\windshield_wiper\windshield_wiper_02s.jpg	1	-1	1	0	windshield_wiper_02s.jpg	0	0.0	0	108.50915406004101	108.559132751077	0.049978691036812996	71999
72.099	50	392	0	0	cabinet	233	83	1	stimuli\cabinet\cabinet_04s.jpg	3	-1	1	0	cabinet_04s.jpg	0	0.0	0	108.60914898884899	108.659128411324	0.04997942247428	72099
72.199	50	393	0	0	puffin	1248	84	1	stimuli\puffin\puffin_02s.jpg	1	-1	1	0	puffin_02s.jpg	0	0.0	0	108.70918780320801	108.75916186196301	0.0499740587547421	72199
72.299	50	394	0	0	green_beans	712	85	1	stimuli\green_beans\green_beans_09s.jpg	8	-1	1	0	green_beans_09s.jpg	0	0.0	0	108.809180293931	108.859160447842	0.049980153911747004	72299
72.399	50	395	0	0	lamb	889	86	1	stimuli\lamb\lamb_04s.jpg	3	-1	1	0	lamb_04s.jpg	0	0.0	0	108.909166445606	108.95916269090999	0.0499962453031912	72399
72.499	50	396	0	0	chili	327	87	1	stimuli\chili\chili_10s.jpg	9	-1	1	0	chili_10s.jpg	0	0.0	0	109.009168444783	109.05913884635099	0.04997040156740701	72499
72.599	50	397	0	0	chick	321	88	1	stimuli\chick\chick_09s.jpg	8	-1	1	0	chick_09s.jpg	0	0.0	0	109.109162642155	109.159144502715	0.049981860560364993	72599
72.699	50	398	0	0	drum	522	89	1	stimuli\drum\drum_05s.jpg	4	-1	1	0	drum_05s.jpg	0	0.0	0	109.20917195570699	109.25914308859501	0.0499711328884587	72699
72.799	50	399	0	0	horn	797	90	1	stimuli\horn\horn_08s.jpg	7	-1	1	0	horn_08s.jpg	0	0.0	0	109.30917493009501	109.35915215837299	0.0499772282782942	72799
72.899	50	400	0	0	top_hat	1682	91	1	stimuli\top_hat\top_hat_04s.jpg	3	-1	1	0	top_hat_04s.jpg	0	0.0	0	109.409175710287	109.45915342611299	0.049977715825661996	72899
72.999	50	401	0	0	knot	883	92	1	stimuli\knot\knot_07s.jpg	6	-1	1	0	knot_07s.jpg	0	0.0	0	109.50917405239299	109.559178099618	0.0500040472252294	72999
73.099	50	402	0	0	biscuit	133	93	1	stimuli\biscuit\biscuit_01b.jpg	0	-1	1	0	biscuit_01b.jpg	0	0.0	0	109.60918434115601	109.659182780772	0.0499984396155924	73099
73.199	50	403	0	0	brownie	204	94	1	stimuli\brownie\brownie_04s.jpg	3	-1	1	0	brownie_04s.jpg	0	0.0	0	109.709190485184	109.759165762924	0.049975277739577	73199
73.299	50	404	0	0	paddle	1094	95	1	stimuli\paddle\paddle_03s.jpg	2	-1	1	0	paddle_03s.jpg	0	0.0	0	109.809180293931	109.85918507259301	0.0500047786626965	73299
73.399	50	405	0	0	slingshot	1467	96	1	stimuli\slingshot\slingshot_07s.jpg	6	-1	1	0	slingshot_07s.jpg	0	0.0	0	109.90920789306999	109.95918877853501	0.0499808854656294	73399
73.499	50	406	0	0	boomerang	168	97	1	stimuli\boomerang\boomerang_02s.jpg	1	-1	1	0	boomerang_02s.jpg	0	0.0	0	110.009207210504	110.059189802501	0.0499825919978321	73499
73.599	50	407	0	0	fish	600	98	1	stimuli\fish\fish_04s.jpg	3	-1	1	0	fish_04s.jpg	0	0.0	0	110.10921237920401	110.15919570263901	0.0499833234352991	73599
73.699	50	408	0	0	clothes	361	99	1	stimuli\clothes\clothes_04s.jpg	3	-1	1	0	clothes_04s.jpg	0	0.0	0	110.209201944177	110.259202090441	0.0500001462642103	73699
73.799	50	409	0	0	golf_club	690	100	1	stimuli\golf_club\golf_club_06s.jpg	5	-1	1	0	golf_club_06s.jpg	0	0.0	0	110.309225154808	110.35918458493	0.0499594301218167	73799
73.899	50	410	0	0	cord	407	101	1	stimuli\cord\cord_05s.jpg	4	-1	1	0	cord_05s.jpg	0	0.0	0	110.409220083617	110.45920218795099	0.0499821043340489	73899
73.999	50	411	0	0	stove2	1564	102	1	stimuli\stove2\stove2_09s.jpg	8	-1	1	0	stove2_09s.jpg	0	0.0	0	110.509216475184	110.55919492244699	0.0499784472631291	73999
74.099	50	412	0	0	tape	1622	103	1	stimuli\tape\tape_07s.jpg	6	-1	1	0	tape_07s.jpg	0	0.0	0	110.609214573517	110.659198140725	0.049983567208983004	74099
74.199	50	413	0	0	bell_pepper	117	104	1	stimuli\bell_pepper\bell_pepper_04s.jpg	3	-1	1	0	bell_pepper_04s.jpg	0	0.0	0	110.70921876700599	110.75919940858101	0.0499806415755302	74199
74.299	50	414	0	0	peeler	1138	105	1	stimuli\peeler\peeler_04s.jpg	3	-1	1	0	peeler_04s.jpg	0	0.0	0	110.809223935823	110.859203602071	0.0499796662479639	74299
74.399	50	415	0	0	clothespin	363	106	1	stimuli\clothespin\clothespin_01b.jpg	0	-1	1	0	clothespin_01b.jpg	0	0.0	0	110.90922617877399	110.959209258435	0.0499830796616152	74399
74.499	50	416	0	0	stair	1532	107	1	stimuli\stair\stair_10s.jpg	9	-1	1	0	stair_10s.jpg	0	0.0	0	111.00922086380899	111.0591885834	0.0499677195912227	74499
74.599	50	417	0	0	penguin	1145	108	1	stimuli\penguin\penguin_07s.jpg	6	-1	1	0	penguin_07s.jpg	0	0.0	0	111.109221156337	111.159217889304	0.0499967329669744	74599
74.699	50	418	0	0	rice	1309	109	1	stimuli\rice\rice_04s.jpg	3	-1	1	0	rice_04s.jpg	0	0.0	0	111.209240953671	111.25922086380899	0.0499799101380631	74699
74.799	50	419	0	0	slide	1464	110	1	stimuli\slide\slide_06s.jpg	5	-1	1	0	slide_06s.jpg	0	0.0	0	111.309241246199	111.359207259258	0.049966013059019994	74799
74.899	50	420	0	0	fishnet_stockings	604	111	1	stimuli\fishnet_stockings\fishnet_stockings_05s.jpg	4	-1	1	0	fishnet_stockings_05s.jpg	0	0.0	0	111.409265919705	111.459204138489	0.0499382187845185	74899
74.999	50	421	0	0	dogfood	496	112	1	stimuli\dogfood\dogfood_11s.jpg	10	-1	1	0	dogfood_11s.jpg	0	0.0	0	111.50922720285601	111.559205406229	0.0499782033730298	74999
75.099	50	422	0	0	motherboard	1024	113	1	stimuli\motherboard\motherboard_10s.jpg	9	-1	1	0	motherboard_10s.jpg	0	0.0	0	111.609228958259	111.659208868397	0.0499799101380631	75099
75.199	50	423	0	0	mask	980	114	1	stimuli\mask\mask_02s.jpg	1	-1	1	0	mask_02s.jpg	0	0.0	0	111.709257045062	111.759235492325	0.0499784472631291	75199
75.299	50	424	0	0	bush	227	115	1	stimuli\bush\bush_07s.jpg	6	-1	1	0	bush_07s.jpg	0	0.0	0	111.809255874832	111.859236028744	0.049980153911747004	75299
75.399	50	425	0	0	peppermint	1152	116	1	stimuli\peppermint\peppermint_12s.jpg	11	-1	1	0	peppermint_12s.jpg	0	0.0	0	111.909245683579	111.95921779179501	0.0499721082160249	75399
75.499	50	426	0	0	boot	169	117	1	stimuli\boot\boot_06s.jpg	5	-1	1	0	boot_06s.jpg	0	0.0	0	112.00923768663799	112.05921515869	0.0499774720519781	75499
75.599	50	427	0	0	snack	1475	118	1	stimuli\snack\snack_05s.jpg	4	-1	1	0	snack_05s.jpg	0	0.0	0	112.10924163635401	112.159245683579	0.0500040472252294	75599
75.699	50	428	0	0	card	271	119	1	stimuli\card\card_06s.jpg	5	-1	1	0	card_06s.jpg	0	0.0	0	112.209265822195	112.25924938940399	0.049983567208983004	75699
75.799	50	429	0	0	tape_measure	1623	120	1	stimuli\tape_measure\tape_measure_03s.jpg	2	-1	1	0	tape_measure_03s.jpg	0	0.0	0	112.3092687967	112.35925358301	0.0499847863102332	75799
75.899	50	430	0	0	shower_cap	1434	121	1	stimuli\shower_cap\shower_cap_08s.jpg	7	-1	1	0	shower_cap_08s.jpg	0	0.0	0	112.409275428276	112.459231932764	0.0499565044883639	75899
75.999	50	431	0	0	crow	446	122	1	stimuli\crow\crow_07s.jpg	6	-1	1	0	crow_07s.jpg	0	0.0	0	112.509269869421	112.55924807291001	0.0499782034894451	75999
76.099	50	432	0	0	jack	835	123	1	stimuli\jack\jack_09s.jpg	8	-1	1	0	jack_09s.jpg	0	0.0	0	112.609265042003	112.659233005485	0.0499679634813219	76099
76.199	50	433	0	0	clipper1	356	124	1	stimuli\clipper1\clipper1_06s.jpg	5	-1	1	0	clipper1_06s.jpg	0	0.0	0	112.709270698368	112.759250852279	0.049980153911747004	76199
76.299	50	434	0	0	cigarette_holder	346	125	1	stimuli\cigarette_holder\cigarette_holder_01b.jpg	0	-1	1	0	cigarette_holder_01b.jpg	0	0.0	0	112.80928391288	112.859260897269	0.049976984388195	76299
76.399	50	435	0	0	walker1	1773	126	1	stimuli\walker1\walker1_07s.jpg	6	-1	1	0	walker1_07s.jpg	0	0.0	0	112.90927177108802	112.959265090758	0.0499933196697384	76399
76.499	50	436	0	0	latte	901	127	1	stimuli\latte\latte_05s.jpg	4	-1	1	0	latte_05s.jpg	0	0.0	0	113.009263530374	113.05925026722299	0.0499867368489504	76499
76.599	50	437	0	0	tinsel	1662	128	1	stimuli\tinsel\tinsel_10s.jpg	9	-1	1	0	tinsel_10s.jpg	0	0.0	0	113.109288935317	113.15925421682199	0.0499652815051377	76599
76.699	50	438	0	0	leotard	918	129	1	stimuli\leotard\leotard_02s.jpg	1	-1	1	0	leotard_02s.jpg	0	0.0	0	113.209294591681	113.25927133229601	0.0499767406145111	76699
76.799	50	439	0	0	playing_card	1199	130	1	stimuli\playing_card\playing_card_06s.jpg	5	-1	1	0	playing_card_06s.jpg	0	0.0	0	113.30929244612301	113.359256996308	0.049964550184086	76799
76.899	50	440	0	0	sawhorse	1367	131	1	stimuli\sawhorse\sawhorse_02s.jpg	1	-1	1	0	sawhorse_02s.jpg	0	0.0	0	113.40926006832198	113.459285326884	0.0500252585625276	76899
76.999	50	441	0	0	punching_bag	1256	132	1	stimuli\punching_bag\punching_bag_01b.jpg	0	-1	1	0	punching_bag_01b.jpg	0	0.0	0	113.50929912657	113.559279524256	0.0499803976854309	76999
77.099	50	442	0	0	finger	588	133	1	stimuli\finger\finger_11s.jpg	10	-1	1	0	finger_11s.jpg	0	0.0	0	113.609300881973	113.65927932923701	0.0499784472631291	77099
77.199	50	443	0	0	jewel	849	134	1	stimuli\jewel\jewel_08s.jpg	7	-1	1	0	jewel_08s.jpg	0	0.0	0	113.709304100252	113.75928327895201	0.0499791787005961	77199
77.299	50	444	0	0	landmine	894	135	1	stimuli\landmine\landmine_06s.jpg	5	-1	1	0	landmine_06s.jpg	0	0.0	0	113.80930414900601	113.85928479058201	0.0499806415755302	77299
77.399	50	445	0	0	ping-pong_table	1184	136	1	stimuli\ping-pong_table\ping-pong_table_03s.jpg	2	-1	1	0	ping-pong_table_03s.jpg	0	0.0	0	113.90930785494899	113.959269479383	0.0499616244342178	77399
77.499	50	446	0	0	sewing_kit	1406	137	1	stimuli\sewing_kit\sewing_kit_06s.jpg	5	-1	1	0	sewing_kit_06s.jpg	0	0.0	0	114.009289130336	114.059270747122	0.0499816167866811	77499
77.599	50	447	0	0	hay	761	138	1	stimuli\hay\hay_03s.jpg	2	-1	1	0	hay_03s.jpg	0	0.0	0	114.109293323825	114.159278597799	0.0499852739740163	77599
77.699	50	448	0	0	tray	1705	139	1	stimuli\tray\tray_03s.jpg	2	-1	1	0	tray_03s.jpg	0	0.0	0	114.209296785994	114.259275964694	0.0499791787005961	77699
77.799	50	449	0	0	milkshake	1002	140	1	stimuli\milkshake\milkshake_07s.jpg	6	-1	1	0	milkshake_07s.jpg	0	0.0	0	114.309300004272	114.359285765793	0.0499857615213841	77799
77.899	50	450	0	0	teapot	1634	141	1	stimuli\teapot\teapot_05s.jpg	4	-1	1	0	teapot_05s.jpg	0	0.0	0	114.40930102823799	114.459304100252	0.0500030720140785	77899
77.999	50	451	0	0	t-shirt	1606	142	1	stimuli\t-shirt\t-shirt_02s.jpg	1	-1	1	0	t-shirt_02s.jpg	0	0.0	0	114.50930912268801	114.559305855655	0.0499967329669744	77999
78.099	50	452	0	0	coffin	383	143	1	stimuli\coffin\coffin_01b.jpg	0	-1	1	0	coffin_01b.jpg	0	0.0	0	114.609337209491	114.65931029303499	0.0499730835435912	78099
78.199	50	453	0	0	vending_machine	1757	144	1	stimuli\vending_machine\vending_machine_11s.jpg	10	-1	1	0	vending_machine_11s.jpg	0	0.0	0	114.70932750590099	114.759306928376	0.04997942247428	78199
78.299	50	454	0	0	eclair	544	145	1	stimuli\eclair\eclair_02s.jpg	1	-1	1	0	eclair_02s.jpg	0	0.0	0	114.80932926130501	114.859311365755	0.0499821044504642	78299
78.399	50	455	0	0	scuba	1392	146	1	stimuli\scuba\scuba_09s.jpg	8	-1	1	0	scuba_09s.jpg	0	0.0	0	114.90933564910699	114.95931434026001	0.0499786911532283	78399
78.499	50	456	0	0	marijuana	974	147	1	stimuli\marijuana\marijuana_11s.jpg	10	-1	1	0	marijuana_11s.jpg	0	0.0	0	115.009334966424	115.059316827101	0.0499818606767803	78499
78.599	50	457	0	0	cannonball	261	148	1	stimuli\cannonball\cannonball_06s.jpg	5	-1	1	0	cannonball_06s.jpg	0	0.0	0	115.10934208566299	115.159320532926	0.0499784472631291	78599
78.699	50	458	0	0	sundial	1583	149	1	stimuli\sundial\sundial_06s.jpg	5	-1	1	0	sundial_06s.jpg	0	0.0	0	115.20932360494	115.25932887126699	0.0500052663264796	78699
78.799	50	459	0	0	moth	1023	150	1	stimuli\moth\moth_02n.jpg	1	-1	1	0	moth_02n.jpg	0	0.0	0	115.30934291461	115.359322824748	0.0499799101380631	78799
78.899	50	460	0	0	reindeer	1301	151	1	stimuli\reindeer\reindeer_05s.jpg	4	-1	1	0	reindeer_05s.jpg	0	0.0	0	115.409347839653	115.45932653068998	0.049978691036812996	78899
78.999	50	461	0	0	wrist	1842	152	1	stimuli\wrist\wrist_02s.jpg	1	-1	1	0	wrist_02s.jpg	0	0.0	0	115.50933009025199	115.55932950519501	0.0499994149431586	78999
79.099	50	462	0	0	oyster	1092	153	1	stimuli\oyster\oyster_08s.jpg	7	-1	1	1	oyster_08s.jpg	0	0.0	0	115.60935256956101	115.659313218668	0.0499606491066515	79099
79.199	50	463	0	0	nail_file	1048	154	1	stimuli\nail_file\nail_file_01b.jpg	0	-1	1	0	nail_file_01b.jpg	0	0.0	0	115.709330675425	115.75930351507799	0.049972839653492	79199
79.299	50	464	0	0	fire_hydrant	592	155	1	stimuli\fire_hydrant\fire_hydrant_09s.jpg	8	-1	1	0	fire_hydrant_09s.jpg	0	0.0	0	115.80932292225799	115.85929746867599	0.0499745464185253	79299
79.399	50	465	0	0	crouton	445	156	1	stimuli\crouton\crouton_02n.jpg	1	-1	1	0	crouton_02n.jpg	0	0.0	0	115.909362224396	115.95934067165899	0.0499784472631291	79399
79.499	50	466	0	0	photograph	1164	157	1	stimuli\photograph\photograph_03s.jpg	2	-1	1	0	photograph_03s.jpg	1	0.39218879211694	1	116.009344962658	116.05932170327299	0.0499767406145111	79499
79.599	50	467	0	0	orange	1078	158	1	stimuli\orange\orange_05s.jpg	4	-1	1	0	orange_05s.jpg	0	0.0	0	116.109342817101	116.159348571091	0.0500057539902627	79599
79.699	50	468	0	0	hose	800	159	1	stimuli\hose\hose_01b.jpg	0	-1	1	0	hose_01b.jpg	0	0.0	0	116.209366027731	116.259348619846	0.0499825921142474	79699
79.799	50	469	0	0	shell2	1418	160	1	stimuli\shell2\shell2_08s.jpg	7	-1	1	0	shell2_08s.jpg	0	0.0	0	116.30936948989999	116.359347693273	0.0499782033730298	79799
79.899	50	470	0	0	water_cooler	1788	161	1	stimuli\water_cooler\water_cooler_01b.jpg	0	-1	1	0	water_cooler_01b.jpg	0	0.0	0	116.40937368338899	116.45935018023	0.0499764968408272	79899
79.999	50	471	0	0	swab	1590	162	1	stimuli\swab\swab_05s.jpg	4	-1	1	0	swab_05s.jpg	0	0.0	0	116.50937495124501	116.55936046887699	0.0499855176312849	79999
80.099	50	472	0	0	seal	1397	163	1	stimuli\seal\seal_07s.jpg	6	-1	1	0	seal_07s.jpg	0	0.0	0	116.609360127593	116.659343694802	0.049983567208983004	80099
80.199	50	473	0	0	candlestick	254	164	1	stimuli\candlestick\candlestick_03s.jpg	2	-1	1	0	candlestick_03s.jpg	0	0.0	0	116.709385532537	116.759360078839	0.049974546302110005	80199
80.299	50	474	0	0	firetruck	596	165	1	stimuli\firetruck\firetruck_04s.jpg	3	-1	1	0	firetruck_04s.jpg	0	0.0	0	116.809381192666	116.859360615257	0.0499794225906953	80299
80.399	50	475	0	0	hourglass	807	166	1	stimuli\hourglass\hourglass_09s.jpg	8	-1	1	0	hourglass_09s.jpg	0	0.0	0	116.909383923397	116.95936480874701	0.0499808853492141	80399
80.499	50	476	0	0	banana_split	65	167	1	stimuli\banana_split\banana_split_01b.jpg	0	-1	1	0	banana_split_01b.jpg	0	0.0	0	117.00938519113701	117.059353154618	0.0499679634813219	80499
80.599	50	477	0	0	barbed_wire	71	168	1	stimuli\barbed_wire\barbed_wire_01b.jpg	0	-1	1	0	barbed_wire_01b.jpg	0	0.0	0	117.109372561914	117.15935710433399	0.0499845424201339	80599
80.699	50	478	0	0	hawk	760	169	1	stimuli\hawk\hawk_10s.jpg	9	-1	1	0	hawk_10s.jpg	0	0.0	0	117.209396016318	117.259371537832	0.0499755215132609	80699
80.799	50	479	0	0	seaplane	1398	170	1	stimuli\seaplane\seaplane_05s.jpg	4	-1	1	0	seaplane_05s.jpg	0	0.0	0	117.309391188901	117.359357933281	0.0499667443800718	80799
80.899	50	480	0	0	flagpole	606	171	1	stimuli\flagpole\flagpole_07s.jpg	6	-1	1	0	flagpole_07s.jpg	0	0.0	0	117.40939684526501	117.459377730615	0.0499808853492141	80899
80.999	50	481	0	0	gravestone	710	172	1	stimuli\gravestone\gravestone_06s.jpg	5	-1	1	0	gravestone_06s.jpg	0	0.0	0	117.509381290176	117.55937777936899	0.0499964891932905	80999
81.099	50	482	0	0	zebra	1851	173	1	stimuli\zebra\zebra_05s.jpg	4	-1	1	0	zebra_05s.jpg	0	0.0	0	117.609384020907	117.659370026202	0.049986005295068	81099
81.199	50	483	0	0	bagpipe	56	174	1	stimuli\bagpipe\bagpipe_12s.jpg	11	-1	1	0	bagpipe_12s.jpg	0	0.0	0	117.70938358199801	117.759365686448	0.0499821044504642	81199
81.299	50	484	0	0	radiator	1272	175	1	stimuli\radiator\radiator_03s.jpg	2	-1	1	0	radiator_03s.jpg	0	0.0	0	117.80938460608	117.859365003766	0.0499803976854309	81299
81.399	50	485	0	0	cellphone	293	176	1	stimuli\cellphone\cellphone_04s.jpg	3	-1	1	0	cellphone_04s.jpg	0	0.0	0	117.909414643305	117.959390652482	0.049976009177044006	81399
81.499	50	486	0	0	appetizer	29	177	1	stimuli\appetizer\appetizer_12s.jpg	11	-1	1	0	appetizer_12s.jpg	0	0.0	0	118.009410791099	118.059393870761	0.0499830796616152	81499
81.599	50	487	0	0	submarine	1577	178	1	stimuli\submarine\submarine_04s.jpg	3	-1	1	0	submarine_04s.jpg	0	0.0	0	118.109412546619	118.159396357602	0.0499838109826669	81599
81.699	50	488	0	0	coffee_bean	378	179	1	stimuli\coffee_bean\coffee_bean_04s.jpg	3	-1	1	0	coffee_bean_04s.jpg	0	0.0	0	118.20941966574199	118.259401770192	0.0499821044504642	81699
81.799	50	489	0	0	letter_opener	919	180	1	stimuli\letter_opener\letter_opener_11s.jpg	10	-1	1	0	letter_opener_11s.jpg	0	0.0	0	118.309419470723	118.35939962463499	0.049980153911747004	81799
81.899	50	490	0	0	ticktacktoe	1657	181	1	stimuli\ticktacktoe\ticktacktoe_08s.jpg	7	-1	1	0	ticktacktoe_08s.jpg	0	0.0	0	118.40940659761002	118.459386263974	0.0499796663643792	81899
81.999	50	491	0	0	cannon	260	182	1	stimuli\cannon\cannon_12n.jpg	11	-1	1	0	cannon_12n.jpg	0	0.0	0	118.509401282528	118.55940606119101	0.0500047786626965	81999
82.099	50	492	0	0	keyhole	871	183	1	stimuli\keyhole\keyhole_09s.jpg	8	-1	1	0	keyhole_09s.jpg	0	0.0	0	118.609427418909	118.65940952335899	0.0499821044504642	82099
82.199	50	493	0	0	sewage	1405	184	1	stimuli\sewage\sewage_01b.jpg	0	-1	1	0	sewage_01b.jpg	0	0.0	0	118.709433562937	118.759394943598	0.0499613806605339	82199
82.299	50	494	0	0	razor	1290	185	1	stimuli\razor\razor_08s.jpg	7	-1	1	0	razor_08s.jpg	0	0.0	0	118.809437024989	118.859411571291	0.049974546302110005	82299
82.399	50	495	0	0	washcloth	1783	186	1	stimuli\washcloth\washcloth_12s.jpg	11	-1	1	0	washcloth_12s.jpg	0	0.0	0	118.90943390422	118.959398942068	0.0499650378478691	82399
82.499	50	496	0	0	taillight	1617	187	1	stimuli\taillight\taillight_09s.jpg	8	-1	1	0	taillight_09s.jpg	0	0.0	0	119.009435659624	119.059417032637	0.0499813730129972	82499
82.599	50	497	0	0	headdress	763	188	1	stimuli\headdress\headdress_10s.jpg	9	-1	1	0	headdress_10s.jpg	0	0.0	0	119.109439121792	119.159423420439	0.049984298646449994	82599
82.699	50	498	0	0	mousepad	1028	189	1	stimuli\mousepad\mousepad_05s.jpg	4	-1	1	0	mousepad_05s.jpg	0	0.0	0	119.209439901984	119.259422981646	0.0499830796616152	82699
82.799	50	499	0	0	basil	81	190	1	stimuli\basil\basil_10s.jpg	9	-1	1	0	basil_10s.jpg	0	0.0	0	119.309446045896	119.35940888943199	0.04996284353546799	82799
82.899	50	500	0	0	waffle	1770	191	1	stimuli\waffle\waffle_02s.jpg	1	-1	1	0	waffle_02s.jpg	0	0.0	0	119.409448776627	119.45941283914699	0.0499640625203028	82899
82.999	50	501	0	0	saddle	1343	192	1	stimuli\saddle\saddle_10s.jpg	9	-1	1	0	saddle_10s.jpg	0	0.0	0	119.50947052438299	119.55941410688699	0.0499435825040564	82999
83.099	50	502	0	0	harp	755	193	1	stimuli\harp\harp_09s.jpg	8	-1	1	0	harp_09s.jpg	0	0.0	0	119.609450824559	119.65943707374399	0.0499862491851673	83099
83.199	50	503	0	0	hair	733	194	1	stimuli\hair\hair_04s.jpg	3	-1	1	0	hair_04s.jpg	0	0.0	0	119.709455749602	119.75942029966998	0.0499645500676706	83199
83.299	50	504	0	0	bulletin_board	217	195	1	stimuli\bulletin_board\bulletin_board_07s.jpg	6	-1	1	0	bulletin_board_07s.jpg	0	0.0	0	119.809457992553	119.85944155987801	0.0499835673253983	83299
83.399	50	505	0	0	game	654	196	1	stimuli\game\game_12s.jpg	11	-1	1	0	game_12s.jpg	0	0.0	0	119.90946169849501	119.959441364859	0.0499796663643792	83399
83.499	50	506	0	0	root	1331	197	1	stimuli\root\root_06s.jpg	5	-1	1	0	root_06s.jpg	0	0.0	0	120.009444192983	120.05944287637199	0.0499986833892763	83499
83.599	50	507	0	0	bucket	209	198	1	stimuli\bucket\bucket_07s.jpg	6	-1	1	0	bucket_07s.jpg	0	0.0	0	120.109468866489	120.159448045189	0.0499791787005961	83599
83.699	50	508	0	0	marmalade	976	199	1	stimuli\marmalade\marmalade_12s.jpg	11	-1	1	0	marmalade_12s.jpg	0	0.0	0	120.20944867911699	120.25942225020799	0.049973571090959006	83699
83.799	50	509	0	0	cilantro	347	200	1	stimuli\cilantro\cilantro_12s.jpg	11	-1	1	0	cilantro_12s.jpg	0	0.0	0	120.309446777334	120.35942546848699	0.0499786911532283	83799
83.899	50	510	0	0	roll	1323	201	1	stimuli\roll\roll_09s.jpg	8	-1	1	0	roll_09s.jpg	0	0.0	0	120.40947632701099	120.45945794379801	0.0499816167866811	83899
83.999	50	511	0	0	detonator	482	202	1	stimuli\detonator\detonator_10s.jpg	9	-1	1	0	detonator_10s.jpg	0	0.0	0	120.50947393768	120.55945409170799	0.0499801540281624	83999
84.099	50	512	0	0	wall	1775	203	1	stimuli\wall\wall_10s.jpg	9	-1	1	0	wall_10s.jpg	0	0.0	0	120.609476180747	120.659449508064	0.0499733273172751	84099
84.199	50	513	0	0	handkerchief	747	204	1	stimuli\handkerchief\handkerchief_12s.jpg	11	-1	1	0	handkerchief_12s.jpg	0	0.0	0	120.709477204713	120.759451263468	0.0499740587547421	84199
84.299	50	514	0	0	pine_needle	1180	205	1	stimuli\pine_needle\pine_needle_03s.jpg	2	-1	1	0	pine_needle_03s.jpg	0	0.0	0	120.80947140208401	120.85945399408199	0.0499825919978321	84299
84.399	50	515	0	0	gravel	709	206	1	stimuli\gravel\gravel_02n.jpg	1	-1	1	0	gravel_02n.jpg	0	0.0	0	120.90947657090099	120.95945794379801	0.0499813728965819	84399
84.499	50	516	0	0	sewing_machine	1407	207	1	stimuli\sewing_machine\sewing_machine_12s.jpg	11	-1	1	0	sewing_machine_12s.jpg	0	0.0	0	121.009488322423	121.059459211654	0.0499708892311901	84499
84.599	50	517	0	0	knife	879	208	1	stimuli\knife\knife_04s.jpg	3	-1	1	0	knife_04s.jpg	0	0.0	0	121.10948105691901	121.15946486801799	0.0499838110990822	84599
84.699	50	518	0	0	headrest	767	209	1	stimuli\headrest\headrest_09s.jpg	8	-1	1	0	headrest_09s.jpg	0	0.0	0	121.20948427519801	121.25946516054701	0.0499808853492141	84699
84.799	50	519	0	0	rattle	1287	210	1	stimuli\rattle\rattle_09s.jpg	8	-1	1	0	rattle_09s.jpg	0	0.0	0	121.30948505539	121.359466672176	0.0499816167866811	84799
84.899	50	520	0	0	snake	1477	211	1	stimuli\snake\snake_02s.jpg	1	-1	1	0	snake_02s.jpg	0	0.0	0	121.409479740425	121.459453311516	0.049973571090959006	84899
84.999	50	521	0	0	cauliflower	288	212	1	stimuli\cauliflower\cauliflower_05s.jpg	4	-1	1	0	cauliflower_05s.jpg	0	0.0	0	121.509475644329	121.559457261115	0.0499816167866811	84999
85.099	50	522	0	0	french_fries	641	213	1	stimuli\french_fries\french_fries_08s.jpg	7	-1	1	0	french_fries_08s.jpg	0	0.0	0	121.609479106497	121.659489248996	0.0500101424986497	85099
85.199	50	523	0	0	shelf	1416	214	1	stimuli\shelf\shelf_01b.jpg	0	-1	1	0	shelf_01b.jpg	0	0.0	0	121.70950353611299	121.75948588433701	0.0499823482241482	85199
85.299	50	524	0	0	bandage	66	215	1	stimuli\bandage\bandage_08s.jpg	7	-1	1	0	bandage_08s.jpg	0	0.0	0	121.80950699828101	121.859486420755	0.04997942247428	85299
85.399	50	525	0	0	deer	476	216	1	stimuli\deer\deer_03s.jpg	2	-1	1	0	deer_03s.jpg	0	0.0	0	121.909493881278	121.95948939526001	0.0499955139821395	85399
85.499	50	526	0	0	van	1752	217	1	stimuli\van\van_03s.jpg	2	-1	1	1	van_03s.jpg	0	0.0	0	122.009511484299	122.059496026835	0.0499845425365493	85499
85.599	50	527	0	0	tapestry	1625	218	1	stimuli\tapestry\tapestry_03s.jpg	2	-1	1	0	tapestry_03s.jpg	0	0.0	0	122.109514946467	122.15948290994899	0.0499679634813219	85599
85.699	50	528	0	0	meatloaf	990	219	1	stimuli\meatloaf\meatloaf_09s.jpg	8	-1	1	0	meatloaf_09s.jpg	0	0.0	0	122.209500610479	122.259473450133	0.049972839653492	85699
85.799	50	529	0	0	seismograph	1403	220	1	stimuli\seismograph\seismograph_08s.jpg	7	-1	1	0	seismograph_08s.jpg	1	0.350386730162427	1	122.309500659234	122.35947886272301	0.0499782034894451	85799
85.899	50	530	0	0	scoop	1381	221	1	stimuli\scoop\scoop_04s.jpg	3	-1	1	0	scoop_04s.jpg	0	0.0	0	122.409521675552	122.45950353611299	0.049981860560364993	85899
85.999	50	531	0	0	pepper1	1149	222	1	stimuli\pepper1\pepper1_10s.jpg	9	-1	1	0	pepper1_10s.jpg	0	0.0	0	122.50952294340799	122.55948822491301	0.0499652815051377	85999
86.099	50	532	0	0	cleaver	354	223	1	stimuli\cleaver\cleaver_04s.jpg	3	-1	1	0	cleaver_04s.jpg	0	0.0	0	122.609520554077	122.65950095176201	0.0499803976854309	86099
86.199	50	533	0	0	floss	617	224	1	stimuli\floss\floss_04s.jpg	3	-1	1	0	floss_04s.jpg	0	0.0	0	122.70951987139401	122.75950319482901	0.0499833234352991	86199
86.299	50	534	0	0	catapult	285	225	1	stimuli\catapult\catapult_04s.jpg	3	-1	1	0	catapult_04s.jpg	0	0.0	0	122.80951723828899	122.859512995929	0.0499957576394081	86299
86.399	50	535	0	0	eel	545	226	1	stimuli\eel\eel_10s.jpg	9	-1	1	0	eel_10s.jpg	0	0.0	0	122.90953630406901	122.959516458097	0.0499801540281624	86399
86.499	50	536	0	0	tablet	1610	227	1	stimuli\tablet\tablet_12s.jpg	11	-1	1	0	tablet_12s.jpg	0	0.0	0	123.009536840487	123.05950309732	0.0499662568327039	86499
86.599	50	537	0	0	laundry_basket	902	228	1	stimuli\laundry_basket\laundry_basket_04s.jpg	3	-1	1	0	laundry_basket_04s.jpg	0	0.0	0	123.10953445115601	123.159506315598	0.049971864442340995	86599
86.699	50	538	0	0	fingerprint	589	229	1	stimuli\fingerprint\fingerprint_04s.jpg	3	-1	1	0	fingerprint_04s.jpg	0	0.0	0	123.20951987139401	123.25949539290701	0.0499755215132609	86699
86.799	50	539	0	0	wand	1780	230	1	stimuli\wand\wand_01s.jpg	0	-1	1	0	wand_01s.jpg	0	0.0	0	123.30952504009501	123.359512752155	0.0499877120601013	86799
86.899	50	540	0	0	duster	534	231	1	stimuli\duster\duster_12s.jpg	11	-1	1	0	duster_12s.jpg	0	0.0	0	123.409553858335	123.459534256137	0.0499803978018463	86899
86.999	50	541	0	0	lime	930	232	1	stimuli\lime\lime_02s.jpg	1	-1	1	0	lime_02s.jpg	0	0.0	0	123.50953269575301	123.559531866806	0.0499991710530594	86999
87.099	50	542	0	0	sling	1466	233	1	stimuli\sling\sling_06s.jpg	5	-1	1	0	sling_06s.jpg	0	0.0	0	123.609540790203	123.659512654645	0.049971864442340995	87099
87.199	50	543	0	0	surfboard	1587	234	1	stimuli\surfboard\surfboard_01b.jpg	0	-1	1	0	surfboard_01b.jpg	0	0.0	0	123.70953352469999	123.75951489771299	0.0499813730129972	87199
87.299	50	544	0	0	suitcase	1581	235	1	stimuli\suitcase\suitcase_09s.jpg	8	-1	1	0	suitcase_09s.jpg	0	0.0	0	123.80953259824301	123.859541033977	0.0500084357336164	87299
87.399	50	545	0	0	thermometer	1646	236	1	stimuli\thermometer\thermometer_04s.jpg	3	-1	1	0	thermometer_04s.jpg	0	0.0	0	123.909559953609	123.959543764708	0.0499838110990822	87399
87.499	50	546	0	0	lemonade	915	237	1	stimuli\lemonade\lemonade_06s.jpg	5	-1	1	0	lemonade_06s.jpg	0	0.0	0	124.00956049002701	124.059542838251	0.0499823482241482	87499
87.599	50	547	0	0	rattlesnake	1288	238	1	stimuli\rattlesnake\rattlesnake_09s.jpg	8	-1	1	0	rattlesnake_09s.jpg	0	0.0	0	124.109566633939	124.15953191556002	0.049965281621553004	87599
87.699	50	548	0	0	boxer_shorts	182	239	1	stimuli\boxer_shorts\boxer_shorts_02s.jpg	1	-1	1	0	boxer_shorts_02s.jpg	0	0.0	0	124.209547665669	124.259523674846	0.049976009177044006	87699
87.799	50	549	0	0	moss	1022	240	1	stimuli\moss\moss_01b.jpg	0	-1	1	0	moss_01b.jpg	0	0.0	0	124.309550640057	124.359530793969	0.049980153911747004	87799
87.899	50	550	0	0	lasagna	898	241	1	stimuli\lasagna\lasagna_04s.jpg	3	-1	1	0	lasagna_04s.jpg	0	0.0	0	124.40955605264799	124.459534499911	0.0499784472631291	87899
87.999	50	551	0	0	grain	698	242	1	stimuli\grain\grain_10s.jpg	9	-1	1	0	grain_10s.jpg	0	0.0	0	124.509558051941	124.559555760119	0.0499977081781253	87999
88.099	50	552	0	0	cart	278	243	1	stimuli\cart\cart_01b.jpg	0	-1	1	0	cart_01b.jpg	0	0.0	0	124.609566390165	124.659534353646	0.0499679634813219	88099
88.199	50	553	0	0	shaker	1408	244	1	stimuli\shaker\shaker_07s.jpg	6	-1	1	0	shaker_07s.jpg	0	0.0	0	124.709556198912	124.75956097757401	0.0500047786626965	88199
88.299	50	554	0	0	wick	1815	245	1	stimuli\wick\wick_05s.jpg	4	-1	1	0	wick_05s.jpg	0	0.0	0	124.80956526869	124.859516165452	0.0499508967623115	88299
88.399	50	555	0	0	spool	1518	246	1	stimuli\spool\spool_09s.jpg	8	-1	1	0	spool_09s.jpg	0	0.0	0	124.909568486968	124.959565463709	0.0499969767406583	88399
88.499	50	556	0	0	sword	1602	247	1	stimuli\sword\sword_09s.jpg	8	-1	1	0	sword_09s.jpg	0	0.0	0	125.00957024237101	125.05957014486201	0.0499999024905264	88499
88.599	50	557	0	0	washboard	1782	248	1	stimuli\washboard\washboard_10s.jpg	9	-1	1	0	washboard_10s.jpg	0	0.0	0	125.10959759773701	125.159572631703	0.0499750339658931	88599
88.699	50	558	0	0	red_carpet	1298	249	1	stimuli\red_carpet\red_carpet_05s.jpg	4	-1	1	0	red_carpet_05s.jpg	0	0.0	0	125.20959667128	125.259573655669	0.049976984388195	88699
88.799	50	559	0	0	mallet	962	250	1	stimuli\mallet\mallet_08s.jpg	7	-1	1	0	mallet_08s.jpg	0	0.0	0	125.309593306738	125.35958077490801	0.0499874681700021	88799
88.899	50	560	0	0	woman	1832	251	1	stimuli\woman\woman_11s.jpg	10	-1	1	0	woman_11s.jpg	0	0.0	0	125.40958165261002	125.459555467474	0.0499738148646429	88899
88.999	50	561	0	0	sticker	1553	252	1	stimuli\sticker\sticker_06s.jpg	5	-1	1	0	sticker_06s.jpg	0	0.0	0	125.509580238489	125.55956185527599	0.0499816167866811	88999
89.099	50	562	0	0	cornucopia	416	253	1	stimuli\cornucopia\cornucopia_07s.jpg	6	-1	1	0	cornucopia_07s.jpg	0	0.0	0	125.609608569182	125.659581896383	0.0499733272008598	89099
89.199	50	563	0	0	parfait	1119	254	1	stimuli\parfait\parfait_08s.jpg	7	-1	1	0	parfait_08s.jpg	0	0.0	0	125.709608861711	125.75959267281	0.0499838110990822	89199
89.299	50	564	0	0	odometer	1071	255	1	stimuli\odometer\odometer_09s.jpg	8	-1	1	0	odometer_09s.jpg	0	0.0	0	125.809604521957	125.859587601619	0.0499830796616152	89299
89.399	50	565	0	0	pogo_stick	1208	256	1	stimuli\pogo_stick\pogo_stick_01s.jpg	0	-1	1	0	pogo_stick_01s.jpg	0	0.0	0	125.90960262017299	125.959582774201	0.0499801540281624	89399
89.499	50	566	0	0	clipboard	355	257	1	stimuli\clipboard\clipboard_02s.jpg	1	-1	1	0	clipboard_02s.jpg	0	0.0	0	126.009602181381	126.059586967691	0.0499847863102332	89499
89.599	50	567	0	0	chainsaw	299	258	1	stimuli\chainsaw\chainsaw_09s.jpg	8	-1	1	0	chainsaw_09s.jpg	0	0.0	0	126.10960661864401	126.159587747883	0.0499811292393133	89599
89.699	50	568	0	0	stroller	1574	259	1	stimuli\stroller\stroller_09s.jpg	8	-1	1	0	stroller_09s.jpg	0	0.0	0	126.209607155062	126.259590966161	0.0499838110990822	89699
89.799	50	569	0	0	banner	70	260	1	stimuli\banner\banner_02s.jpg	1	-1	1	0	banner_02s.jpg	0	0.0	0	126.3096130552	126.359592965338	0.0499799101380631	89799
89.899	50	570	0	0	box	181	261	1	stimuli\box\box_05s.jpg	4	-1	1	0	box_05s.jpg	0	0.0	0	126.409616761142	126.45958691893601	0.049970157793723	89899
89.999	50	571	0	0	parsley	1122	262	1	stimuli\parsley\parsley_04s.jpg	3	-1	1	0	parsley_04s.jpg	0	0.0	0	126.509622905171	126.55960793525401	0.0499850300839171	89999
90.099	50	572	0	0	fountain_pen	637	263	1	stimuli\fountain_pen\fountain_pen_04s.jpg	3	-1	1	0	fountain_pen_04s.jpg	0	0.0	0	126.609623197699	126.659607496345	0.049984298646449994	90099
90.199	50	573	0	0	screen1	1388	264	1	stimuli\screen1\screen1_03s.jpg	2	-1	1	0	screen1_03s.jpg	0	0.0	0	126.70962349022699	126.759600474732	0.0499769845046103	90199
90.299	50	574	0	0	chalice	301	265	1	stimuli\chalice\chalice_05s.jpg	4	-1	1	0	chalice_05s.jpg	0	0.0	0	126.80962451431002	126.85961027583099	0.0499857615213841	90299
90.399	50	575	0	0	wreck	1840	266	1	stimuli\wreck\wreck_05s.jpg	4	-1	1	0	wreck_05s.jpg	0	0.0	0	126.909628707799	126.95961105602301	0.0499823482241482	90399
90.499	50	576	0	0	dresser	519	267	1	stimuli\dresser\dresser_10s.jpg	9	-1	1	0	dresser_10s.jpg	0	0.0	0	127.009629487991	127.059611348552	0.049981860560364993	90499
90.599	50	577	0	0	tank2	1621	268	1	stimuli\tank2\tank2_03s.jpg	2	-1	1	0	tank2_03s.jpg	0	0.0	0	127.109633437707	127.15960505825899	0.0499716205522418	90599
90.699	50	578	0	0	cage	236	269	1	stimuli\cage\cage_02s.jpg	1	-1	1	0	cage_02s.jpg	0	0.0	0	127.20962275890601	127.259599743295	0.049976984388195	90699
90.799	50	579	0	0	anvil	28	270	1	stimuli\anvil\anvil_04s.jpg	3	-1	1	0	anvil_04s.jpg	0	0.0	0	127.309622076224	127.35962709866001	0.0500050224363804	90799
90.899	50	580	0	0	bark	74	271	1	stimuli\bark\bark_06s.jpg	5	-1	1	0	bark_06s.jpg	0	0.0	0	127.409650163027	127.459629585501	0.04997942247428	90899
90.999	50	581	0	0	leash	907	272	1	stimuli\leash\leash_10s.jpg	9	-1	1	0	leash_10s.jpg	0	0.0	0	127.50964899268	127.559629878029	0.0499808853492141	90999
91.099	50	582	0	0	crate	433	273	1	stimuli\crate\crate_11s.jpg	10	-1	1	0	crate_11s.jpg	0	0.0	0	127.60966537671601	127.659616761142	0.0499513844260946	91099
91.199	50	583	0	0	fungus	648	274	1	stimuli\fungus\fungus_05s.jpg	4	-1	1	0	fungus_05s.jpg	0	0.0	0	127.70963470556299	127.75961656612301	0.049981860560364993	91199
91.299	50	584	0	0	frisbee	643	275	1	stimuli\frisbee\frisbee_08s.jpg	7	-1	1	0	frisbee_08s.jpg	0	0.0	0	127.80962597718501	127.859616371104	0.0499903939198703	91299
91.399	50	585	0	0	baklava	57	276	1	stimuli\baklava\baklava_05s.jpg	4	-1	1	0	baklava_05s.jpg	0	0.0	0	127.90966722962901	127.959636899759	0.0499696701299399	91399
91.499	50	586	0	0	album	11	277	1	stimuli\album\album_11s.jpg	10	-1	1	0	album_11s.jpg	0	0.0	0	128.009656794602	128.059637923841	0.0499811292393133	91499
91.599	50	587	0	0	tooth	1678	278	1	stimuli\tooth\tooth_08s.jpg	7	-1	1	0	tooth_08s.jpg	0	0.0	0	128.109660744318	128.15962017444	0.0499594301218167	91599
91.699	50	588	0	0	canoe	262	279	1	stimuli\canoe\canoe_10s.jpg	9	-1	1	0	canoe_10s.jpg	0	0.0	0	128.20963665598498	128.2596133966	0.0499767406145111	91699
91.799	50	589	0	0	pincushion	1179	280	1	stimuli\pincushion\pincushion_03s.jpg	2	-1	1	0	pincushion_03s.jpg	0	0.0	0	128.30964011803698	128.359622710152	0.0499825921142474	91799
91.899	50	590	0	0	flower	619	281	1	stimuli\flower\flower_06s.jpg	5	-1	1	0	flower_06s.jpg	0	0.0	0	128.409655526862	128.459648602642	0.0499930757796392	91899
91.999	50	591	0	0	fossil	636	282	1	stimuli\fossil\fossil_07s.jpg	6	-1	1	0	fossil_07s.jpg	0	0.0	0	128.509671910782	128.559637192404	0.049965281621553004	91999
92.099	50	592	0	0	ankle	22	283	1	stimuli\ankle\ankle_09s.jpg	8	-1	1	0	ankle_09s.jpg	0	0.0	0	128.609672690975	128.659632121096	0.0499594301218167	92099
92.199	50	593	0	0	bathrobe	90	284	1	stimuli\bathrobe\bathrobe_08s.jpg	7	-1	1	0	bathrobe_08s.jpg	0	0.0	0	128.70964445790702	128.759626562241	0.0499821043340489	92199
92.299	50	594	0	0	cream_cheese	437	285	1	stimuli\cream_cheese\cream_cheese_06s.jpg	5	-1	1	0	cream_cheese_06s.jpg	0	0.0	0	128.80967912753098	128.859642946278	0.0499638187466189	92299
92.399	50	595	0	0	ginger	673	286	1	stimuli\ginger\ginger_10s.jpg	9	-1	1	1	ginger_10s.jpg	0	0.0	0	128.909683321021	128.959662012174	0.0499786911532283	92399
92.499	50	596	0	0	whip	1809	287	1	stimuli\whip\whip_04s.jpg	3	-1	1	0	whip_04s.jpg	0	0.0	0	129.009681907017	129.059664986562	0.0499830795451999	92499
92.599	50	597	0	0	syrup	1605	288	1	stimuli\syrup\syrup_11s.jpg	10	-1	1	0	syrup_11s.jpg	0	0.0	0	129.109687807155	129.159665279207	0.0499774720519781	92599
92.699	50	598	0	0	jetski	848	289	1	stimuli\jetski\jetski_04s.jpg	3	-1	1	0	jetski_04s.jpg	1	0.3419214310124519	1	129.209688343573	129.25966971647	0.0499813728965819	92699
92.799	50	599	0	0	weed	1802	290	1	stimuli\weed\weed_08s.jpg	7	-1	1	0	weed_08s.jpg	0	0.0	0	129.309676201781	129.359674641397	0.0499984396155924	92799
92.899	50	600	0	0	aardvark	0	291	1	stimuli\aardvark\aardvark_03s.jpg	2	-1	1	0	aardvark_03s.jpg	0	0.0	0	129.40966796106702	129.459692732082	0.0500247710151598	92899
92.999	50	601	0	0	breadstick	196	292	1	stimuli\breadstick\breadstick_11s.jpg	10	-1	1	0	breadstick_11s.jpg	0	0.0	0	129.509699217393	129.559676201781	0.049976984388195	92999
93.099	50	602	0	0	strawberry	1570	293	1	stimuli\strawberry\strawberry_03n.jpg	2	-1	1	0	strawberry_03n.jpg	0	0.0	0	129.609699022374	129.659661378246	0.0499623558716848	93099
93.199	50	603	0	0	nail	1046	294	1	stimuli\nail\nail_08s.jpg	7	-1	1	0	nail_08s.jpg	0	0.0	0	129.709678835003	129.759656794602	0.0499779595993459	93199
93.299	50	604	0	0	cornhusk	414	295	1	stimuli\cornhusk\cornhusk_05s.jpg	4	-1	1	0	cornhusk_05s.jpg	0	0.0	0	129.809675958008	129.85966147575502	0.0499855177477002	93299
93.399	50	605	0	0	measuring_cup	986	296	1	stimuli\measuring_cup\measuring_cup_07s.jpg	6	-1	1	0	measuring_cup_07s.jpg	0	0.0	0	129.909683321021	129.959660793073	0.0499774720519781	93399
93.499	50	606	0	0	kayak	863	297	1	stimuli\kayak\kayak_07s.jpg	6	-1	1	0	kayak_07s.jpg	0	0.0	0	130.00968507654	130.05965450278	0.0499694262398407	93499
93.599	50	607	0	0	butterfly	229	298	1	stimuli\butterfly\butterfly_02s.jpg	1	-1	1	0	butterfly_02s.jpg	0	0.0	0	130.109712919453	130.159690879169	0.0499779597157612	93599
93.699	50	608	0	0	keyboard	870	299	1	stimuli\keyboard\keyboard_06s.jpg	5	-1	1	0	keyboard_06s.jpg	0	0.0	0	130.209714187309	130.25969287834602	0.049978691036812996	93699
93.799	50	609	0	0	scalpel	1374	300	1	stimuli\scalpel\scalpel_07s.jpg	6	-1	1	0	scalpel_07s.jpg	0	0.0	0	130.309716917924	130.35969853471002	0.0499816167866811	93799
93.899	50	610	0	0	chalk	302	301	1	stimuli\chalk\chalk_09s.jpg	8	-1	1	0	chalk_09s.jpg	0	0.0	0	130.409719892428	130.459702728316	0.0499828358879313	93899
93.999	50	611	0	0	board	152	302	1	stimuli\board\board_08s.jpg	7	-1	1	0	board_08s.jpg	0	0.0	0	130.509719697409	130.559703264618	0.049983567208983004	93999
94.099	50	612	0	0	chain	298	303	1	stimuli\chain\chain_04s.jpg	3	-1	1	0	chain_04s.jpg	0	0.0	0	130.609729498508	130.659707701998	0.0499782034894451	94099
94.199	50	613	0	0	smoothie	1474	304	1	stimuli\smoothie\smoothie_09s.jpg	8	-1	1	0	smoothie_09s.jpg	0	0.0	0	130.70972101402	130.75970433745502	0.0499833234352991	94199
94.299	50	614	0	0	popcorn	1223	305	1	stimuli\popcorn\popcorn_04s.jpg	3	-1	1	0	popcorn_04s.jpg	0	0.0	0	130.809712529415	130.859710725257	0.0499981958419085	94299
94.399	50	615	0	0	lampshade	893	306	1	stimuli\lampshade\lampshade_04s.jpg	3	-1	1	0	lampshade_04s.jpg	0	0.0	0	130.909732814296	130.959711505449	0.0499786911532283	94399
