onset	duration	eventnumber	blocksequencenumber	isteststim	object	objectnumber	presentationnumber	sequencenumber	stim	stimnumber	teststimnumber	withinsequencenumber	istarget	stimname	response	rt	correct	time_stimon	time_stimoff	stimdur	sample
179.034	50	0	0	0	pancake	1104	0	0	stimuli\pancake\pancake_03s.jpg	2	-1	0	0	pancake_03s.jpg	1	0.0	0	168.551723002922	168.601699109597	0.0499761066748761	179034
179.134	50	1	0	0	thumbtack	1654	1	0	stimuli\thumbtack\thumbtack_11s.jpg	10	-1	0	0	thumbtack_11s.jpg	0	0.0	0	168.651742507704	168.701702279097	0.0499597713933326	179134
179.234	50	2	0	0	fire_hydrant	592	2	0	stimuli\fire_hydrant\fire_hydrant_03s.jpg	2	-1	0	0	fire_hydrant_03s.jpg	0	0.0	0	168.751742263907	168.801723490527	0.049981226620730006	179234
179.334	50	3	0	0	pulpit	1251	3	0	stimuli\pulpit\pulpit_05s.jpg	4	-1	0	0	pulpit_05s.jpg	0	0.0	0	168.851766157255	168.901725684816	0.0499595275614411	179334
179.434	50	4	0	0	ballot_box	61	4	0	stimuli\ballot_box\ballot_box_05s.jpg	4	-1	0	0	ballot_box_05s.jpg	0	0.0	0	168.951729829598	169.00170471722998	0.0499748876318336	179434
179.534	50	5	0	0	radio	1273	5	0	stimuli\radio\radio_04s.jpg	3	-1	0	0	radio_04s.jpg	0	0.0	0	169.05173153628098	169.102374218579	0.0506426822976209	179534
179.634	50	6	0	0	ruby	1338	6	0	stimuli\ruby\ruby_05s.jpg	4	-1	0	0	ruby_05s.jpg	0	0.0	0	169.151736656262	169.201712031499	0.049975375237409005	179634
179.734	50	7	0	0	towel_rack	1693	7	0	stimuli\towel_rack\towel_rack_06s.jpg	5	-1	0	0	towel_rack_06s.jpg	0	0.0	0	169.251734705816	169.301745921024	0.0500112152076326	179734
179.834	50	8	0	0	cranberry	430	8	0	stimuli\cranberry\cranberry_02s.jpg	1	-1	0	0	cranberry_02s.jpg	0	0.0	0	169.351764450548	169.40173860674298	0.0499741561943665	179834
179.934	50	9	0	0	duckling	526	9	0	stimuli\duckling\duckling_12s.jpg	11	-1	0	0	duckling_12s.jpg	0	0.0	0	169.451762012497	169.501723978145	0.0499619656475261	179934
180.034	50	10	0	0	beachball	99	10	0	stimuli\beachball\beachball_08s.jpg	7	-1	0	0	beachball_08s.jpg	0	0.0	0	169.551768107747	169.601728122914	0.0499600151670165	180034
180.134	50	11	0	0	humvee	813	11	0	stimuli\humvee\humvee_02s.jpg	1	-1	0	0	humvee_02s.jpg	0	0.0	0	169.651742263872	169.701722515339	0.0499802514677867	180134
180.234	50	12	0	0	hearing_aid	770	12	0	stimuli\hearing_aid\hearing_aid_01b.jpg	0	-1	0	0	hearing_aid_01b.jpg	0	0.0	0	169.751743726782	169.801752260071	0.050008533289655994	180234
180.334	50	13	0	0	ring	1313	13	0	stimuli\ring\ring_12s.jpg	11	-1	0	0	ring_12s.jpg	0	0.0	0	169.851760549645	169.901734462008	0.0499739123624749	180334
180.434	50	14	0	0	cardinal	274	14	0	stimuli\cardinal\cardinal_10s.jpg	9	-1	0	0	cardinal_10s.jpg	0	0.0	0	169.951758842974	170.00173031725	0.0499714742763899	180434
180.534	50	15	0	0	bookmark	166	15	0	stimuli\bookmark\bookmark_09s.jpg	8	-1	0	0	bookmark_09s.jpg	0	0.0	0	170.051778591529	170.101732511481	0.049953919951804	180534
180.634	50	16	0	0	lollipop	945	16	0	stimuli\lollipop\lollipop_08s.jpg	7	-1	0	0	lollipop_08s.jpg	0	0.0	0	170.151749334356	170.201732999121	0.0499836647650227	180634
180.734	50	17	0	0	alpaca	15	17	0	stimuli\alpaca\alpaca_10s.jpg	9	-1	0	0	alpaca_10s.jpg	0	0.0	0	170.25175421056298	170.301739338203	0.0499851276399568	180734
180.834	50	18	0	0	oatmeal	1069	18	0	stimuli\oatmeal\oatmeal_07s.jpg	6	-1	0	0	oatmeal_07s.jpg	0	0.0	0	170.351761768688	170.401743726747	0.0499819580581971	180834
180.934	50	19	0	0	dogfood	496	19	0	stimuli\dogfood\dogfood_10s.jpg	9	-1	0	0	dogfood_10s.jpg	0	0.0	0	170.451759330579	170.50174275151198	0.0499834209331311	180934
181.034	50	20	0	0	badge	52	20	0	stimuli\badge\badge_01b.jpg	0	-1	0	1	badge_01b.jpg	0	0.0	0	170.55176737631	170.601747627719	0.0499802514095791	181034
181.134	50	21	0	0	blowtorch	148	21	0	stimuli\blowtorch\blowtorch_02s.jpg	1	-1	0	0	blowtorch_02s.jpg	0	0.0	0	170.651767620118	170.701749334403	0.0499817142845131	181134
181.234	50	22	0	0	chili	327	22	0	stimuli\chili\chili_10s.jpg	9	-1	0	0	chili_10s.jpg	0	0.0	0	170.751769570576	170.801751041028	0.0499814704526216	181234
181.334	50	23	0	0	tube_top	1724	23	0	stimuli\tube_top\tube_top_12s.jpg	11	-1	0	0	tube_top_12s.jpg	0	0.0	0	170.851769570552	170.901752991544	0.0499834209913388	181334
181.434	50	24	0	0	toilet_paper	1671	24	0	stimuli\toilet_paper\toilet_paper_04s.jpg	3	-1	0	0	toilet_paper_04s.jpg	0	0.0	0	170.95177103346202	171.001751284872	0.0499802514095791	181434
181.534	50	25	0	0	porthole	1227	25	0	stimuli\porthole\porthole_06s.jpg	5	-1	0	0	porthole_06s.jpg	0	0.0	0	171.051782004884	171.101762500126	0.0499804952414706	181534
181.634	50	26	0	0	outfit	1087	26	0	stimuli\outfit\outfit_07s.jpg	6	-1	0	0	outfit_07s.jpg	1	0.6526870263624011	1	171.151782248693	171.20176030578997	0.049978057097178	181634
181.734	50	27	0	0	icepick	822	27	0	stimuli\icepick\icepick_10s.jpg	9	-1	0	0	icepick_10s.jpg	0	0.0	0	171.251778347709	171.301794439147	0.0500160914380103	181734
181.834	50	28	0	0	trapdoor	1703	28	0	stimuli\trapdoor\trapdoor_01b.jpg	0	-1	0	0	trapdoor_01b.jpg	0	0.0	0	171.351786881045	171.401787612471	0.0500007314258255	181834
181.934	50	29	0	0	rug	1340	29	0	stimuli\rug\rug_12s.jpg	11	-1	0	0	rug_12s.jpg	0	0.0	0	171.451784199162	171.501765913446	0.0499817142845131	181934
182.034	50	30	0	0	grenade	713	30	0	stimuli\grenade\grenade_03s.jpg	2	-1	0	0	grenade_03s.jpg	0	0.0	0	171.551784930576	171.601774934388	0.0499900038121268	182034
182.134	50	31	0	0	paint	1096	31	0	stimuli\paint\paint_05s.jpg	4	-1	0	0	paint_05s.jpg	0	0.0	0	171.65180248487698	171.701799803006	0.0499973181285895	182134
182.234	50	32	0	0	wheel	1806	32	0	stimuli\wheel\wheel_07s.jpg	6	-1	0	0	wheel_07s.jpg	0	0.0	0	171.751821989659	171.801809555385	0.0499875657260418	182234
182.334	50	33	0	0	blender	138	33	0	stimuli\blender\blender_05s.jpg	4	-1	0	0	blender_05s.jpg	0	0.0	0	171.851815406815	171.90178273629903	0.0499673294834793	182334
182.434	50	34	0	0	wineglass	1826	34	0	stimuli\wineglass\wineglass_02s.jpg	1	-1	0	0	wineglass_02s.jpg	0	0.0	0	171.95179590204498	172.00178054202098	0.0499846399761736	182434
182.534	50	35	0	0	backgammon	48	35	0	stimuli\backgammon\backgammon_05s.jpg	4	-1	0	0	backgammon_05s.jpg	0	0.0	0	172.051832961093	172.101796633448	0.0499636723543517	182534
182.634	50	36	0	0	doorknob	509	36	0	stimuli\doorknob\doorknob_08s.jpg	7	-1	0	0	doorknob_08s.jpg	0	0.0	0	172.15180882392502	172.20178761251702	0.0499787885928527	182634
182.734	50	37	0	0	thimble	1649	37	0	stimuli\thimble\thimble_12s.jpg	11	-1	0	0	thimble_12s.jpg	0	0.0	0	172.25182150205399	172.301801753463	0.0499802514095791	182734
182.834	50	38	0	0	peppermint	1152	38	0	stimuli\peppermint\peppermint_02s.jpg	1	-1	0	0	peppermint_02s.jpg	0	0.0	0	172.351824671554	172.40179955918597	0.0499748876318336	182834
182.934	50	39	0	0	scarecrow	1376	39	0	stimuli\scarecrow\scarecrow_05s.jpg	4	-1	0	0	scarecrow_05s.jpg	0	0.0	0	172.451821745839	172.501803460123	0.0499817142845131	182934
183.034	50	40	0	0	faucet	573	40	0	stimuli\faucet\faucet_07s.jpg	6	-1	0	0	faucet_07s.jpg	0	0.0	0	172.551830523007	172.60183515539399	0.0500046323868446	183034
183.134	50	41	0	0	stopwatch	1562	41	0	stimuli\stopwatch\stopwatch_02s.jpg	1	-1	0	0	stopwatch_02s.jpg	0	0.0	0	172.651833936339	172.701810774393	0.0499768380541354	183134
183.234	50	42	0	0	kneepad	878	42	0	stimuli\kneepad\kneepad_08s.jpg	7	-1	0	0	kneepad_08s.jpg	0	0.0	0	172.75183344871002	172.80183954397202	0.0500060952617787	183234
183.334	50	43	0	0	petal	1158	43	0	stimuli\petal\petal_01b.jpg	0	-1	0	0	petal_01b.jpg	0	0.0	0	172.851836862043	172.901815650635	0.0499787885928527	183334
183.434	50	44	0	0	breadbox	195	44	0	stimuli\breadbox\breadbox_04s.jpg	3	-1	0	0	breadbox_04s.jpg	0	0.0	0	172.951837593457	173.001798583951	0.0499609904945828	183434
183.534	50	45	0	0	scone	1380	45	0	stimuli\scone\scone_11s.jpg	10	-1	0	0	scone_11s.jpg	0	0.0	0	173.05184685823002	173.101827597304	0.0499807390733622	183534
183.634	50	46	0	0	face_mask	570	46	0	stimuli\face_mask\face_mask_07s.jpg	6	-1	0	0	face_mask_07s.jpg	0	0.0	0	173.15184466395303	173.2018256468	0.0499809828470461	183634
183.734	50	47	0	0	ribbon	1308	47	0	stimuli\ribbon\ribbon_05s.jpg	4	-1	0	0	ribbon_05s.jpg	0	0.0	0	173.25184344488702	173.301850271586	0.0500068266992457	183734
183.834	50	48	0	0	pepper_mill	1151	48	0	stimuli\pepper_mill\pepper_mill_12s.jpg	11	-1	0	0	pepper_mill_12s.jpg	0	0.0	0	173.351860999188	173.401833204902	0.049972205713857	183834
183.934	50	49	0	0	butter	228	49	0	stimuli\butter\butter_01b.jpg	0	-1	0	0	butter_01b.jpg	0	0.0	0	173.451859048742	173.501836862066	0.049977813323494	183934
184.034	50	50	0	0	punching_bag	1256	50	0	stimuli\punching_bag\punching_bag_05s.jpg	4	-1	0	0	punching_bag_05s.jpg	0	0.0	0	173.551861974469	173.60183978779202	0.049977813323494	184034
184.134	50	51	0	0	mold1	1012	51	0	stimuli\mold1\mold1_07s.jpg	6	-1	0	0	mold1_07s.jpg	0	0.0	0	173.651858804922	173.701840031601	0.0499812266789377	184134
184.234	50	52	0	0	footrest	633	52	0	stimuli\footrest\footrest_04s.jpg	3	-1	0	0	footrest_04s.jpg	0	0.0	0	173.751860999211	173.801845639187	0.0499846399761736	184234
184.334	50	53	0	0	canvas	264	53	0	stimuli\canvas\canvas_12s.jpg	11	-1	0	0	canvas_12s.jpg	0	0.0	0	173.851883673517	173.90186733828202	0.0499836647650227	184334
184.434	50	54	0	0	train	1698	54	0	stimuli\train\train_10n.jpg	9	-1	0	0	train_10n.jpg	0	0.0	0	173.951884648763	174.001849052554	0.0499644037918188	184434
184.534	50	55	0	0	footprint	632	55	0	stimuli\footprint\footprint_05s.jpg	4	-1	0	0	footprint_05s.jpg	0	0.0	0	174.05189366970401	174.10187221446498	0.0499785447609611	184534
184.634	50	56	0	0	wax_paper	1796	56	0	stimuli\wax_paper\wax_paper_08s.jpg	7	-1	0	0	wax_paper_08s.jpg	0	0.0	0	174.151890743989	174.20185782969898	0.0499670857097954	184634
184.734	50	57	0	0	fox	638	57	0	stimuli\fox\fox_08s.jpg	7	-1	0	0	fox_08s.jpg	0	0.0	0	174.251885867794	174.301866363036	0.0499804952414706	184734
184.834	50	58	0	0	drawer	516	58	0	stimuli\drawer\drawer_04s.jpg	3	-1	0	0	drawer_04s.jpg	0	0.0	0	174.351886599208	174.401854416355	0.0499678171472624	184834
184.934	50	59	0	0	mulch	1038	59	0	stimuli\mulch\mulch_06s.jpg	5	-1	0	0	mulch_06s.jpg	0	0.0	0	174.45187928492697	174.501856366813	0.049977081886027	184934
185.034	50	60	0	0	bonsai	164	60	0	stimuli\bonsai\bonsai_01b.jpg	0	-1	0	0	bonsai_01b.jpg	0	0.0	0	174.551904884924	174.60186733823502	0.0499624533113092	185034
185.134	50	61	0	0	cassette	283	61	0	stimuli\cassette\cassette_05s.jpg	4	-1	0	0	cassette_05s.jpg	0	0.0	0	174.651881479193	174.70186392491502	0.0499824457219802	185134
185.234	50	62	0	0	doily	498	62	0	stimuli\doily\doily_10s.jpg	9	-1	0	0	doily_10s.jpg	0	0.0	0	174.75188269827	174.801871726813	0.0499890285427682	185234
185.334	50	63	0	0	shovel	1432	63	0	stimuli\shovel\shovel_03n.jpg	2	-1	0	0	shovel_03n.jpg	0	0.0	0	174.851892206818	174.90186880109798	0.0499765942804515	185334
185.434	50	64	0	0	frog	644	64	0	stimuli\frog\frog_12s.jpg	11	-1	0	0	frog_12s.jpg	0	0.0	0	174.95188781828602	175.001871970657	0.0499841523705982	185434
185.534	50	65	0	0	calf2	242	65	0	stimuli\calf2\calf2_11s.jpg	10	-1	0	0	calf2_11s.jpg	0	0.0	0	175.05188757448897	175.101866850629	0.0499792761402205	185534
185.634	50	66	0	0	stump	1576	66	0	stimuli\stump\stump_07s.jpg	6	-1	0	0	stump_07s.jpg	0	0.0	0	175.151919025928	175.201893669728	0.04997464379994201	185634
185.734	50	67	0	0	balance_beam	58	67	0	stimuli\balance_beam\balance_beam_11s.jpg	10	-1	0	0	balance_beam_11s.jpg	0	0.0	0	175.25191683165002	175.301906104025	0.0499892723746598	185734
185.834	50	68	0	0	jam	839	68	0	stimuli\jam\jam_05s.jpg	4	-1	0	0	jam_05s.jpg	0	0.0	0	175.351899521134	175.40187075157903	0.0499712304444984	185834
185.934	50	69	0	0	stamp1	1535	69	0	stimuli\stamp1\stamp1_10s.jpg	9	-1	0	0	stamp1_10s.jpg	0	0.0	0	175.451893425896	175.501875383954	0.0499819580581971	185934
186.034	50	70	0	0	muffin	1035	70	0	stimuli\muffin\muffin_03n.jpg	2	-1	0	0	muffin_03n.jpg	0	0.0	0	175.551902203064	175.60188245447398	0.0499802514095791	186034
186.134	50	71	0	0	float	616	71	0	stimuli\float\float_03s.jpg	2	-1	0	0	float_03s.jpg	0	0.0	0	175.651900983998	175.701881235407	0.0499802514095791	186134
186.234	50	72	0	0	clover	366	72	0	stimuli\clover\clover_06s.jpg	5	-1	0	0	clover_06s.jpg	0	0.0	0	175.751903422119	175.801886843052	0.0499834209331311	186234
186.334	50	73	0	0	oil	1072	73	0	stimuli\oil\oil_12s.jpg	11	-1	0	0	oil_12s.jpg	0	0.0	0	175.85190293448997	175.90188562398498	0.0499826894956641	186334
186.434	50	74	0	0	roadsweeper	1316	74	0	stimuli\roadsweeper\roadsweeper_10s.jpg	9	-1	0	0	roadsweeper_10s.jpg	0	0.0	0	175.951904397341	176.001885136357	0.0499807390151545	186434
186.534	50	75	0	0	coffee_table	381	75	0	stimuli\coffee_table\coffee_table_12s.jpg	11	-1	0	0	coffee_table_12s.jpg	0	0.0	0	176.05191390588902	176.101890012564	0.0499761066748761	186534
186.634	50	76	0	0	mango	966	76	0	stimuli\mango\mango_02s.jpg	1	-1	0	0	mango_02s.jpg	0	0.0	0	176.151912686881	176.201891963021	0.0499792761402205	186634
186.734	50	77	0	0	rocking_chair	1321	77	0	stimuli\rocking_chair\rocking_chair_04s.jpg	3	-1	0	0	rocking_chair_04s.jpg	0	0.0	0	176.251912686857	176.30189415731002	0.0499814704526216	186734
186.834	50	78	0	0	glasses	678	78	0	stimuli\glasses\glasses_11s.jpg	10	-1	0	0	glasses_11s.jpg	0	0.0	0	176.35191878210802	176.401894401119	0.0499756190110929	186834
186.934	50	79	0	0	napkin	1050	79	0	stimuli\napkin\napkin_04s.jpg	3	-1	0	0	napkin_04s.jpg	0	0.0	0	176.451917563041	176.501898302115	0.0499807390733622	186934
187.034	50	80	0	0	life_jacket	924	80	0	stimuli\life_jacket\life_jacket_02s.jpg	1	-1	0	0	life_jacket_02s.jpg	0	0.0	0	176.55192243924802	176.601897814486	0.049975375237409005	187034
187.134	50	81	0	0	visor	1766	81	0	stimuli\visor\visor_05s.jpg	4	-1	0	0	visor_05s.jpg	0	0.0	0	176.65195510972998	176.70193487353401	0.0499797638040036	187134
187.234	50	82	0	0	saffron	1345	82	0	stimuli\saffron\saffron_06s.jpg	5	-1	0	0	saffron_06s.jpg	0	0.0	0	176.751940968796	176.801939505909	0.0499985371134244	187234
187.334	50	83	0	0	glove	680	83	0	stimuli\glove\glove_09s.jpg	8	-1	0	0	glove_09s.jpg	0	0.0	0	176.85196339926898	176.901924145932	0.0499607466626912	187334
187.434	50	84	0	0	notebook	1064	84	0	stimuli\notebook\notebook_05s.jpg	4	-1	0	0	notebook_05s.jpg	0	0.0	0	176.951960473554	177.001944138319	0.0499836647650227	187434
187.534	50	85	0	0	gondola	691	85	0	stimuli\gondola\gondola_10s.jpg	9	-1	0	0	gondola_10s.jpg	0	0.0	0	177.05196559353502	177.101939749729	0.0499741561943665	187534
187.634	50	86	0	0	blimp	139	86	0	stimuli\blimp\blimp_11n.jpg	10	-1	0	0	blimp_11n.jpg	0	0.0	0	177.151947307808	177.201931216405	0.0499839085969143	187634
187.734	50	87	0	0	ashtray	41	87	0	stimuli\ashtray\ashtray_11s.jpg	10	-1	0	0	ashtray_11s.jpg	0	0.0	0	177.251952184015	177.30193438590499	0.0499822018900886	187734
187.834	50	88	0	0	saddle	1343	88	0	stimuli\saddle\saddle_11s.jpg	10	-1	0	0	saddle_11s.jpg	0	0.0	0	177.351954622136	177.401928778272	0.0499741561361589	187834
187.934	50	89	0	0	buckle	210	89	0	stimuli\buckle\buckle_06s.jpg	5	-1	0	0	buckle_06s.jpg	0	0.0	0	177.451950233546	177.50193024118198	0.0499800076358952	187934
188.034	50	90	0	0	maple_syrup	971	90	0	stimuli\maple_syrup\maple_syrup_06s.jpg	5	-1	0	0	maple_syrup_06s.jpg	0	0.0	0	177.55197924689898	177.601962424058	0.0499831771594472	188034
188.134	50	91	0	0	melon	994	91	0	stimuli\melon\melon_12s.jpg	11	-1	0	0	melon_12s.jpg	0	0.0	0	177.65197875926998	177.70194998971402	0.0499712304444984	188134
188.234	50	92	0	0	dustpan	535	92	0	stimuli\dustpan\dustpan_01b.jpg	0	-1	0	0	dustpan_01b.jpg	0	0.0	0	177.75197754020303	177.80194511351897	0.0499675733153708	188234
188.334	50	93	0	0	mask	980	93	0	stimuli\mask\mask_05s.jpg	4	-1	0	0	mask_05s.jpg	0	0.0	0	177.85196144878898	177.90193633642	0.0499748876318336	188334
188.434	50	94	0	0	dresser	519	94	0	stimuli\dresser\dresser_02s.jpg	1	-1	0	0	dresser_02s.jpg	0	0.0	0	177.95196096116	178.001980222121	0.0500192609615624	188434
188.534	50	95	0	0	pita	1189	95	0	stimuli\pita\pita_11s.jpg	10	-1	0	0	pita_11s.jpg	0	0.0	0	178.05197754025002	178.101946088776	0.0499685485265218	188534
188.634	50	96	0	0	drumstick	523	96	0	stimuli\drumstick\drumstick_11s.jpg	10	-1	0	0	drumstick_11s.jpg	0	0.0	0	178.151963399258	178.201957547863	0.0499941486050375	188634
188.734	50	97	0	0	shoe	1423	97	0	stimuli\shoe\shoe_03s.jpg	2	-1	0	0	shoe_03s.jpg	0	0.0	0	178.251984123082	178.301990218344	0.0500060952617787	188734
188.834	50	98	0	0	scooter	1382	98	0	stimuli\scooter\scooter_08s.jpg	7	-1	0	0	scooter_08s.jpg	0	0.0	0	178.35198607359797	178.401967300219	0.049981226620730006	188834
188.934	50	99	0	0	cinnamon	348	99	0	stimuli\cinnamon\cinnamon_12s.jpg	11	-1	0	0	cinnamon_12s.jpg	0	0.0	0	178.45198607357497	178.50197217642602	0.0499861028511077	188934
189.034	50	100	0	0	sewage	1405	100	0	stimuli\sewage\sewage_04s.jpg	3	-1	0	0	sewage_04s.jpg	0	0.0	0	178.55199143738702	178.60197193262903	0.0499804952414706	189034
189.134	50	101	0	0	coffee_filter	379	101	0	stimuli\coffee_filter\coffee_filter_07s.jpg	6	-1	0	0	coffee_filter_07s.jpg	0	0.0	0	178.651987292629	178.70196730020697	0.0499800075776875	189134
189.234	50	102	0	0	tractor	1695	102	0	stimuli\tractor\tractor_11s.jpg	10	-1	0	0	tractor_11s.jpg	0	0.0	0	178.75201191741502	178.801997532602	0.0499856151873246	189234
189.334	50	103	0	0	coffeemaker	382	103	0	stimuli\coffeemaker\coffeemaker_12s.jpg	11	-1	0	0	coffeemaker_12s.jpg	0	0.0	0	178.852022888837	178.901997776411	0.0499748875736259	189334
189.434	50	104	0	0	nail_polish	1049	104	0	stimuli\nail_polish\nail_polish_09s.jpg	8	-1	0	0	nail_polish_09s.jpg	0	0.0	0	178.952003871673	179.001967787859	0.0499639161862433	189434
189.534	50	105	0	0	file1	583	105	0	stimuli\file1\file1_01b.jpg	0	-1	0	0	file1_01b.jpg	0	0.0	0	179.052011185966	179.10198119736697	0.0499700114014558	189534
189.634	50	106	0	0	kale	860	106	0	stimuli\kale\kale_05s.jpg	4	-1	0	0	kale_05s.jpg	0	0.0	0	179.15200509072702	179.2019846107	0.049979519972112	189634
189.734	50	107	0	0	sauce	1362	107	0	stimuli\sauce\sauce_05s.jpg	4	-1	0	0	sauce_05s.jpg	0	0.0	0	179.251986561168	179.302009235485	0.050022674317005994	189734
189.834	50	108	0	0	cupcake	461	108	0	stimuli\cupcake\cupcake_10s.jpg	9	-1	0	0	cupcake_10s.jpg	0	0.0	0	179.352016062185	179.401992656407	0.0499765942222439	189834
189.934	50	109	0	0	cream	436	109	0	stimuli\cream\cream_07s.jpg	6	-1	0	0	cream_07s.jpg	0	0.0	0	179.45201362407502	179.50202849647	0.0500148723949678	189934
190.034	50	110	0	0	marmalade	976	110	0	stimuli\marmalade\marmalade_01b.jpg	0	-1	0	0	marmalade_01b.jpg	0	0.0	0	179.55202386406003	179.602002408821	0.0499785447609611	190034
190.134	50	111	0	0	hat	757	111	0	stimuli\hat\hat_05s.jpg	4	-1	0	0	hat_05s.jpg	0	0.0	0	179.652019719302	179.70200265263	0.0499829333275557	190134
190.234	50	112	0	0	koala	884	112	0	stimuli\koala\koala_05s.jpg	4	-1	0	0	koala_05s.jpg	0	0.0	0	179.75204629456903	179.80202678981001	0.0499804952414706	190234
190.334	50	113	0	0	spider_web	1514	113	0	stimuli\spider_web\spider_web_05s.jpg	4	-1	0	0	spider_web_05s.jpg	0	0.0	0	179.852044344065	179.902024839306	0.0499804952414706	190334
190.434	50	114	0	0	toe	1668	114	0	stimuli\toe\toe_04s.jpg	3	-1	0	0	toe_04s.jpg	0	0.0	0	179.95203410409198	180.002028984076	0.0499948799842969	190434
190.534	50	115	0	0	rack2	1269	115	0	stimuli\rack2\rack2_09s.jpg	8	-1	0	0	rack2_09s.jpg	0	0.0	0	180.05202776502102	180.10203654214297	0.0500087771215476	190534
190.634	50	116	0	0	flatiron	613	116	0	stimuli\flatiron\flatiron_11s.jpg	10	-1	0	0	flatiron_11s.jpg	0	0.0	0	180.15205287741298	180.20203264121702	0.0499797638040036	190634
190.734	50	117	0	0	nacho	1045	117	0	stimuli\nacho\nacho_09s.jpg	8	-1	0	0	nacho_09s.jpg	0	0.0	0	180.25203629833402	180.30201411165797	0.049977813323494	190734
190.834	50	118	0	0	highlighter	778	118	0	stimuli\highlighter\highlighter_09s.jpg	8	-1	0	0	highlighter_09s.jpg	0	0.0	0	180.352040686936	180.402016549779	0.0499758628429845	190834
190.934	50	119	0	0	sandbox	1354	119	0	stimuli\sandbox\sandbox_05s.jpg	4	-1	0	0	sandbox_05s.jpg	0	0.0	0	180.452040199307	180.50205165834598	0.0500114590395242	190934
191.034	50	120	0	0	raisin	1280	120	0	stimuli\raisin\raisin_06s.jpg	5	-1	0	1	raisin_06s.jpg	0	0.0	0	180.552047025994	180.602031665971	0.0499846399761736	191034
191.134	50	121	0	0	hobbyhorse	782	121	0	stimuli\hobbyhorse\hobbyhorse_11s.jpg	10	-1	0	0	hobbyhorse_11s.jpg	0	0.0	0	180.65204653836602	180.70202922786098	0.0499826894956641	191134
191.234	50	122	0	0	floss	617	122	0	stimuli\floss\floss_08s.jpg	7	-1	0	0	floss_08s.jpg	0	0.0	0	180.752047026006	180.802029227896	0.0499822018900886	191234
191.334	50	123	0	0	teabag	1632	123	0	stimuli\teabag\teabag_05s.jpg	4	-1	0	0	teabag_05s.jpg	1	0.292191507585812	1	180.852049951674	180.90202947170502	0.0499795200303197	191334
191.434	50	124	0	0	tiramisu	1663	124	0	stimuli\tiramisu\tiramisu_06s.jpg	5	-1	0	0	tiramisu_06s.jpg	0	0.0	0	180.952057997405	181.002014355501	0.0499563580960967	191434
191.534	50	125	0	0	robot	1318	125	0	stimuli\robot\robot_01b.jpg	0	-1	0	0	robot_01b.jpg	0	0.0	0	181.052048001206	181.10203239740798	0.0499843962024897	191534
191.634	50	126	0	0	trap	1702	126	0	stimuli\trap\trap_05s.jpg	4	-1	0	0	trap_05s.jpg	0	0.0	0	181.152048976452	181.202028496424	0.049979519972112	191634
191.734	50	127	0	0	shirt	1422	127	0	stimuli\shirt\shirt_12s.jpg	11	-1	0	0	shirt_12s.jpg	0	0.0	0	181.252084572683	181.302052389772	0.0499678170890547	191734
191.834	50	128	0	0	mandolin	965	128	0	stimuli\mandolin\mandolin_04s.jpg	3	-1	0	0	mandolin_04s.jpg	0	0.0	0	181.352067749831	181.402051414538	0.049983664706815006	191834
191.934	50	129	0	0	headlamp	764	129	0	stimuli\headlamp\headlamp_04s.jpg	3	-1	0	0	headlamp_04s.jpg	0	0.0	0	181.452072382206	181.50205165834598	0.0499792761402205	191934
192.034	50	130	0	0	forklift	635	130	0	stimuli\forklift\forklift_05s.jpg	4	-1	0	0	forklift_05s.jpg	0	0.0	0	181.55207262601502	181.602049951674	0.0499773256597109	192034
192.134	50	131	0	0	noisemaker	1060	131	0	stimuli\noisemaker\noisemaker_09s.jpg	8	-1	0	0	noisemaker_09s.jpg	0	0.0	0	181.652069456468	181.702048245061	0.0499787885928527	192134
192.234	50	132	0	0	watering_can	1792	132	0	stimuli\watering_can\watering_can_08s.jpg	7	-1	0	0	watering_can_08s.jpg	0	0.0	0	181.75210407743	181.80206555553002	0.0499614781001583	192234
192.334	50	133	0	0	snake	1477	133	0	stimuli\snake\snake_09s.jpg	8	-1	0	0	snake_09s.jpg	0	0.0	0	181.852066286956	181.902047025971	0.0499807390151545	192334
192.434	50	134	0	0	chicken_wire	324	134	0	stimuli\chicken_wire\chicken_wire_10s.jpg	9	-1	0	0	chicken_wire_10s.jpg	0	0.0	0	181.95206579932702	182.002048976487	0.0499831771594472	192434
192.534	50	135	0	0	flagpole	606	135	0	stimuli\flagpole\flagpole_03s.jpg	2	-1	0	0	flagpole_03s.jpg	0	0.0	0	182.05208457267102	182.102067993605	0.0499834209331311	192534
192.634	50	136	0	0	organ	1082	136	0	stimuli\organ\organ_12s.jpg	11	-1	0	0	organ_12s.jpg	0	0.0	0	182.152081403125	182.202063361241	0.0499819581164047	192634
192.734	50	137	0	0	garbage_truck	656	137	0	stimuli\garbage_truck\garbage_truck_10s.jpg	9	-1	0	0	garbage_truck_10s.jpg	0	0.0	0	182.25207896507303	182.302056534565	0.0499775694916025	192734
192.834	50	138	0	0	wagon	1772	138	0	stimuli\wagon\wagon_11s.jpg	10	-1	0	0	wagon_11s.jpg	0	0.0	0	182.352112366993	182.402092862234	0.0499804952414706	192834
192.934	50	139	0	0	shawl	1411	139	0	stimuli\shawl\shawl_05s.jpg	4	-1	0	0	shawl_05s.jpg	0	0.0	0	182.452097250789	182.502078721242	0.0499814704526216	192934
193.034	50	140	0	0	coleslaw	386	140	0	stimuli\coleslaw\coleslaw_10s.jpg	9	-1	0	0	coleslaw_10s.jpg	0	0.0	0	182.552100420289	182.60207920888197	0.0499787885928527	193034
193.134	50	141	0	0	camcorder	244	141	0	stimuli\camcorder\camcorder_01b.jpg	0	-1	0	0	camcorder_01b.jpg	0	0.0	0	182.652102370805	182.702082378382	0.0499800075776875	193134
193.234	50	142	0	0	suitcase	1581	142	0	stimuli\suitcase\suitcase_07s.jpg	6	-1	0	0	suitcase_07s.jpg	0	0.0	0	182.752108465997	182.802112367004	0.0500039010075852	193234
193.334	50	143	0	0	goblet	685	143	0	stimuli\goblet\goblet_08s.jpg	7	-1	0	0	goblet_08s.jpg	0	0.0	0	182.852125045087	182.90208359743698	0.0499585523502901	193334
193.434	50	144	0	0	wheat	1805	144	0	stimuli\wheat\wheat_01b.jpg	0	-1	0	0	wheat_01b.jpg	0	0.0	0	182.95210310222998	183.002098713652	0.0499956114217639	193434
193.534	50	145	0	0	bandage	66	145	0	stimuli\bandage\bandage_05s.jpg	4	-1	0	0	bandage_05s.jpg	0	0.0	0	183.05211382982102	183.102096031711	0.0499822018900886	193534
193.634	50	146	0	0	pitchfork	1191	146	0	stimuli\pitchfork\pitchfork_07s.jpg	6	-1	0	0	pitchfork_07s.jpg	0	0.0	0	183.15211358602403	183.202094568871	0.0499809828470461	193634
193.734	50	147	0	0	peanut_butter	1132	147	0	stimuli\peanut_butter\peanut_butter_02s.jpg	1	-1	0	0	peanut_butter_02s.jpg	0	0.0	0	183.25211870600498	183.30210237077	0.0499836647650227	193734
193.834	50	148	0	0	vest	1759	148	0	stimuli\vest\vest_07s.jpg	6	-1	0	0	vest_07s.jpg	0	0.0	0	183.35212114412602	183.40210163936698	0.0499804952414706	193834
193.934	50	149	0	0	hot-water_bottle	802	149	0	stimuli\hot-water_bottle\hot-water_bottle_11s.jpg	10	-1	0	0	hot-water_bottle_11s.jpg	0	0.0	0	183.45212723937598	183.502130896493	0.05000365711748599	193934
194.034	50	150	0	0	snowshoe	1485	150	0	stimuli\snowshoe\snowshoe_12s.jpg	11	-1	0	0	snowshoe_12s.jpg	0	0.0	0	183.552128214622	183.602090180328	0.0499619657057337	194034
194.134	50	151	0	0	tackle	1612	151	0	stimuli\tackle\tackle_01b.jpg	0	-1	0	0	tackle_01b.jpg	0	0.0	0	183.652115048899	183.702094568871	0.049979519972112	194134
194.234	50	152	0	0	torso	1685	152	0	stimuli\torso\torso_02s.jpg	1	-1	0	0	torso_02s.jpg	0	0.0	0	183.752150157467	183.802120168868	0.0499700114014558	194234
194.334	50	153	0	0	reindeer	1301	153	0	stimuli\reindeer\reindeer_10s.jpg	9	-1	0	0	reindeer_10s.jpg	0	0.0	0	183.85215357079898	183.902140161255	0.0499865904566832	194334
194.434	50	154	0	0	outlet	1088	154	0	stimuli\outlet\outlet_06s.jpg	5	-1	0	0	outlet_06s.jpg	0	0.0	0	183.952155765088	184.00213772320402	0.0499819581164047	194434
194.534	50	155	0	0	barnacle	75	155	0	stimuli\barnacle\barnacle_05s.jpg	4	-1	0	0	barnacle_05s.jpg	0	0.0	0	184.052164542256	184.102126507962	0.0499619657057337	194534
194.634	50	156	0	0	sickle	1441	156	0	stimuli\sickle\sickle_08s.jpg	7	-1	0	0	sickle_08s.jpg	0	0.0	0	184.15214308700502	184.202123338415	0.0499802514095791	194634
194.734	50	157	0	0	leaf	906	157	0	stimuli\leaf\leaf_08s.jpg	7	-1	0	0	leaf_08s.jpg	0	0.0	0	184.252142355544	184.30212211934798	0.0499797638040036	194734
194.834	50	158	0	0	sailboat	1347	158	0	stimuli\sailboat\sailboat_10s.jpg	9	-1	0	0	sailboat_10s.jpg	0	0.0	0	184.352142599353	184.402124801301	0.0499822019482963	194834
194.934	50	159	0	0	almond	13	159	0	stimuli\almond\almond_06s.jpg	5	-1	0	0	almond_06s.jpg	0	0.0	0	184.452146012685	184.50215503369702	0.0500090210116468	194934
195.034	50	160	0	0	centerpiece	295	160	0	stimuli\centerpiece\centerpiece_06s.jpg	5	-1	0	0	centerpiece_06s.jpg	0	0.0	0	184.55217063747102	184.602135041263	0.0499644037918188	195034
195.134	50	161	0	0	trampoline	1701	161	0	stimuli\trampoline\trampoline_07s.jpg	6	-1	0	0	trampoline_07s.jpg	0	0.0	0	184.65217380702998	184.70215503365003	0.049981226620730006	195134
195.234	50	162	0	0	pom-pom	1218	162	0	stimuli\pom-pom\pom-pom_07s.jpg	6	-1	0	0	pom-pom_07s.jpg	0	0.0	0	184.752178683237	184.802157715603	0.0499790323665366	195234
195.334	50	163	0	0	mongoose	1016	163	0	stimuli\mongoose\mongoose_02s.jpg	1	-1	0	0	mongoose_02s.jpg	0	0.0	0	184.85216527368198	184.902161860315	0.0499965866329148	195334
195.434	50	164	0	0	pumpkin	1253	164	0	stimuli\pumpkin\pumpkin_09s.jpg	8	-1	0	0	pumpkin_09s.jpg	0	0.0	0	184.95216527365798	185.002144793689	0.0499795200303197	195434
195.534	50	165	0	0	headdress	763	165	0	stimuli\headdress\headdress_08s.jpg	7	-1	0	0	headdress_08s.jpg	0	0.0	0	185.052169174654	185.102142599353	0.0499734246986918	195534
195.634	50	166	0	0	earwig	541	166	0	stimuli\earwig\earwig_01b.jpg	0	-1	0	0	earwig_01b.jpg	0	0.0	0	185.152166492713	185.202145768912	0.0499792761984281	195634
195.734	50	167	0	0	laptop	897	167	0	stimuli\laptop\laptop_03s.jpg	2	-1	0	0	laptop_03s.jpg	0	0.0	0	185.25219306798002	185.30215308320498	0.0499600152252242	195734
195.834	50	168	0	0	towel	1692	168	0	stimuli\towel\towel_05s.jpg	4	-1	0	0	towel_05s.jpg	0	0.0	0	185.352171856561	185.402151864138	0.0499800075776875	195834
195.934	50	169	0	0	nightshirt	1058	169	0	stimuli\nightshirt\nightshirt_04s.jpg	3	-1	0	0	nightshirt_04s.jpg	0	0.0	0	185.452171612706	185.502146744169	0.0499751314637251	195934
196.034	50	170	0	0	trumpet	1721	170	0	stimuli\trumpet\trumpet_01s.jpg	0	-1	0	0	trumpet_01s.jpg	0	0.0	0	185.552173319389	185.602156740322	0.0499834209331311	196034
196.134	50	171	0	0	cardigan	273	171	0	stimuli\cardigan\cardigan_10s.jpg	9	-1	0	0	cardigan_10s.jpg	0	0.0	0	185.652179658471	185.702181852714	0.0500021942425519	196134
196.234	50	172	0	0	horse	798	172	0	stimuli\horse\horse_05s.jpg	4	-1	0	0	horse_05s.jpg	0	0.0	0	185.752177951799	185.80214625655202	0.0499683047528379	196234
196.334	50	173	0	0	orangutan	1080	173	0	stimuli\orangutan\orangutan_10s.jpg	9	-1	0	0	orangutan_10s.jpg	0	0.0	0	185.85218209656898	185.902162347978	0.0499802514095791	196334
196.434	50	174	0	0	boa	150	174	0	stimuli\boa\boa_12s.jpg	11	-1	0	0	boa_12s.jpg	0	0.0	0	185.952168443182	186.002173319401	0.0500048762187362	196434
196.534	50	175	0	0	stalagmite	1534	175	0	stimuli\stalagmite\stalagmite_08s.jpg	7	-1	0	0	stalagmite_08s.jpg	0	0.0	0	186.052211597504	186.10217600129502	0.0499644037918188	196534
196.634	50	176	0	0	waffle	1770	176	0	stimuli\waffle\waffle_07s.jpg	6	-1	0	0	waffle_07s.jpg	0	0.0	0	186.152192580339	186.202176488936	0.0499839085969143	196634
196.734	50	177	0	0	badger	53	177	0	stimuli\badger\badger_08s.jpg	7	-1	0	0	badger_08s.jpg	0	0.0	0	186.25222086231202	186.302185266046	0.0499644037336111	196734
196.834	50	178	0	0	confetti	396	178	0	stimuli\confetti\confetti_05s.jpg	4	-1	0	0	confetti_05s.jpg	0	0.0	0	186.352200626105	186.402176732721	0.0499761066166684	196834
196.934	50	179	0	0	ivy	834	179	0	stimuli\ivy\ivy_10s.jpg	9	-1	0	0	ivy_10s.jpg	0	0.0	0	186.452200626081	186.50218136509602	0.0499807390151545	196934
197.034	50	180	0	0	pineapple	1182	180	0	stimuli\pineapple\pineapple_11s.jpg	10	-1	0	0	pineapple_11s.jpg	0	0.0	0	186.552195018448	186.602186728909	0.0499917104607448	197034
197.134	50	181	0	0	marker	975	181	0	stimuli\marker\marker_03s.jpg	2	-1	0	0	marker_03s.jpg	0	0.0	0	186.65221037849602	186.702185266069	0.0499748875736259	197134
197.234	50	182	0	0	air_pump	6	182	0	stimuli\air_pump\air_pump_12s.jpg	11	-1	0	0	air_pump_12s.jpg	0	0.0	0	186.752234759449	186.80221598607	0.049981226620730006	197234
197.334	50	183	0	0	cello	292	183	0	stimuli\cello\cello_06s.jpg	5	-1	0	0	cello_06s.jpg	0	0.0	0	186.85223329655102	186.90221354801898	0.0499802514677867	197334
197.434	50	184	0	0	keyhole	871	184	0	stimuli\keyhole\keyhole_08s.jpg	7	-1	0	0	keyhole_08s.jpg	0	0.0	0	186.95221891178502	187.002219887043	0.0500009752577171	197434
197.534	50	185	0	0	birdhouse	131	185	0	stimuli\birdhouse\birdhouse_01b.jpg	0	-1	0	0	birdhouse_01b.jpg	0	0.0	0	187.05224061087898	187.102217936539	0.0499773256597109	197534
197.634	50	186	0	0	hinge	779	186	0	stimuli\hinge\hinge_11s.jpg	10	-1	0	0	hinge_11s.jpg	0	0.0	0	187.152240367082	187.202210378484	0.0499700114014558	197634
197.734	50	187	0	0	doorknocker	510	187	0	stimuli\doorknocker\doorknocker_09s.jpg	8	-1	0	0	doorknocker_09s.jpg	0	0.0	0	187.252246706106	187.302215010859	0.0499683047528379	197734
197.834	50	188	0	0	stiletto	1554	188	0	stimuli\stiletto\stiletto_05s.jpg	4	-1	0	0	stiletto_05s.jpg	0	0.0	0	187.35222915181703	187.402209403226	0.0499802514095791	197834
197.934	50	189	0	0	first-aid_kit	599	189	0	stimuli\first-aid_kit\first-aid_kit_03s.jpg	2	-1	0	0	first-aid_kit_03s.jpg	0	0.0	0	187.452230127063	187.502229639445	0.049999512382782996	197934
198.034	50	190	0	0	stir_fry	1557	190	0	stimuli\stir_fry\stir_fry_08s.jpg	7	-1	0	0	stir_fry_08s.jpg	0	0.0	0	187.552236222313	187.602232808946	0.0499965866329148	198034
198.134	50	191	0	0	flask	612	191	0	stimuli\flask\flask_10s.jpg	9	-1	0	0	flask_10s.jpg	0	0.0	0	187.652232077555	187.702211597527	0.049979519972112	198134
198.235	50	192	0	0	stuffing	1575	192	0	stimuli\stuffing\stuffing_05s.jpg	4	-1	0	0	stuffing_05s.jpg	0	0.0	0	187.75226718612203	187.80222695751598	0.0499597713933326	198235
198.334	50	193	0	0	totem_pole	1689	193	0	stimuli\totem_pole\totem_pole_03s.jpg	2	-1	0	0	totem_pole_03s.jpg	0	0.0	0	187.852241342305	187.90222159371498	0.0499802514095791	198334
198.434	50	194	0	0	anvil	28	194	0	stimuli\anvil\anvil_11s.jpg	10	-1	0	0	anvil_11s.jpg	0	0.0	0	187.95224646228598	188.002225494653	0.0499790323665366	198434
198.534	50	195	0	0	water_filter	1789	195	0	stimuli\water_filter\water_filter_07s.jpg	6	-1	0	0	water_filter_07s.jpg	0	0.0	0	188.052244024177	188.102222325164	0.0499783009872772	198534
198.634	50	196	0	0	granite	700	196	0	stimuli\granite\granite_10s.jpg	9	-1	0	0	granite_10s.jpg	0	0.0	0	188.152246949903	188.202226469934	0.0499795200303197	198634
198.735	50	197	0	0	air_mattress	5	197	0	stimuli\air_mattress\air_mattress_12s.jpg	11	-1	0	0	air_mattress_12s.jpg	0	0.0	0	188.252275231818	188.302233052789	0.0499578209710307	198735
198.834	50	198	0	0	vial	1760	198	0	stimuli\vial\vial_10s.jpg	9	-1	0	0	vial_10s.jpg	0	0.0	0	188.35225621471199	188.40223573468398	0.049979519972112	198834
198.934	50	199	0	0	stomach	1560	199	0	stimuli\stomach\stomach_10s.jpg	9	-1	0	0	stomach_10s.jpg	0	0.0	0	188.452256702294	188.502228664176	0.0499719618819654	198934
199.034	50	200	0	0	lens	916	200	0	stimuli\lens\lens_01s.jpg	0	-1	0	0	lens_01s.jpg	0	0.0	0	188.552245243278	188.602245974704	0.0500007314258255	199034
199.135	50	201	0	0	rope	1332	201	0	stimuli\rope\rope_02s.jpg	1	-1	0	1	rope_02s.jpg	0	0.0	0	188.652284984244	188.70224597468	0.0499609904363751	199135
199.235	50	202	0	0	brussels_sprouts	206	202	0	stimuli\brussels_sprouts\brussels_sprouts_09s.jpg	8	-1	0	0	brussels_sprouts_09s.jpg	0	0.0	0	188.75228547182599	188.802251338493	0.0499658666667528	199235
199.334	50	203	0	0	gutter	729	203	0	stimuli\gutter\gutter_12s.jpg	11	-1	0	0	gutter_12s.jpg	0	0.0	0	188.852267673763	188.902248168946	0.049980495183263	199334
199.435	50	204	0	0	milk	1001	204	0	stimuli\milk\milk_01b.jpg	0	-1	0	0	milk_01b.jpg	0	0.0	0	188.95226889278302	189.002280351822	0.0500114590395242	199435
199.535	50	205	0	0	stool	1561	205	0	stimuli\stool\stool_08s.jpg	7	-1	0	0	stool_08s.jpg	1	0.39218029234325497	1	189.05229156708802	189.10225206991902	0.0499605028307997	199535
199.635	50	206	0	0	marshmallow	977	206	0	stimuli\marshmallow\marshmallow_11s.jpg	10	-1	0	0	marshmallow_11s.jpg	0	0.0	0	189.15227254992402	189.202253776602	0.0499812266789377	199635
199.735	50	207	0	0	pillbox	1175	207	0	stimuli\pillbox\pillbox_09s.jpg	8	-1	0	0	pillbox_09s.jpg	0	0.0	0	189.252305708069	189.302278645162	0.0499729370931163	199735
199.835	50	208	0	0	soda	1490	208	0	stimuli\soda\soda_11s.jpg	10	-1	0	0	soda_11s.jpg	0	0.0	0	189.35230522043997	189.40228181472	0.0499765942804515	199835
199.935	50	209	0	0	clothespin	363	209	0	stimuli\clothespin\clothespin_03s.jpg	2	-1	0	0	clothespin_03s.jpg	0	0.0	0	189.452300344245	189.50226450420502	0.0499641599599272	199935
200.035	50	210	0	0	water_cooler	1788	210	0	stimuli\water_cooler\water_cooler_02s.jpg	1	-1	0	0	water_cooler_02s.jpg	0	0.0	0	189.552295468049	189.602266210888	0.0499707428389229	200035
200.135	50	211	0	0	doghouse	497	211	0	stimuli\doghouse\doghouse_06s.jpg	5	-1	0	0	doghouse_06s.jpg	0	0.0	0	189.65228961658403	189.70226962422	0.0499800076358952	200135
200.235	50	212	0	0	glue	681	212	0	stimuli\glue\glue_12s.jpg	11	-1	0	0	glue_12s.jpg	0	0.0	0	189.75229522422902	189.802272306115	0.049977081886027	200235
200.335	50	213	0	0	medal	991	213	0	stimuli\medal\medal_06s.jpg	5	-1	0	0	medal_06s.jpg	0	0.0	0	189.852292542346	189.902274744236	0.0499822018900886	200335
200.435	50	214	0	0	horseshoe	799	214	0	stimuli\horseshoe\horseshoe_11n.jpg	10	-1	0	0	horseshoe_11n.jpg	0	0.0	0	189.952312047128	190.002297662315	0.0499856151873246	200435
200.535	50	215	0	0	bullet	216	215	0	stimuli\bullet\bullet_04s.jpg	3	-1	0	0	bullet_04s.jpg	0	0.0	0	190.052304001409	190.102284008986	0.0499800075776875	200535
200.635	50	216	0	0	container	398	216	0	stimuli\container\container_06s.jpg	5	-1	0	0	container_06s.jpg	0	0.0	0	190.15229863754902	190.20229595567798	0.0499973181285895	200635
200.735	50	217	0	0	corkboard	410	217	0	stimuli\corkboard\corkboard_09s.jpg	8	-1	0	0	corkboard_09s.jpg	0	0.0	0	190.252308146155	190.302285715647	0.0499775694916025	200735
200.835	50	218	0	0	umbrella	1743	218	0	stimuli\umbrella\umbrella_07s.jpg	6	-1	0	0	umbrella_07s.jpg	0	0.0	0	190.352307902358	190.40228571568198	0.049977813323494	200835
200.935	50	219	0	0	spider	1513	219	0	stimuli\spider\spider_08s.jpg	7	-1	0	0	spider_08s.jpg	0	0.0	0	190.45231765473702	190.50227620708802	0.0499585523502901	200935
201.035	50	220	0	0	brass_knuckles	193	220	0	stimuli\brass_knuckles\brass_knuckles_03s.jpg	2	-1	0	0	brass_knuckles_03s.jpg	0	0.0	0	190.552343254734	190.602319849015	0.0499765942804515	201035
201.135	50	221	0	0	bulletproof_vest	218	221	0	stimuli\bulletproof_vest\bulletproof_vest_07s.jpg	6	-1	0	0	bulletproof_vest_07s.jpg	0	0.0	0	190.65231399756198	190.702293761366	0.0499797638040036	201135
201.235	50	222	0	0	hubcap	809	222	0	stimuli\hubcap\hubcap_05s.jpg	4	-1	0	0	hubcap_05s.jpg	0	0.0	0	190.752341791871	190.802324481367	0.0499826894956641	201235
201.335	50	223	0	0	cable	234	223	0	stimuli\cable\cable_02s.jpg	1	-1	0	0	cable_02s.jpg	0	0.0	0	190.852319849015	190.902299368987	0.049979519972112	201335
201.435	50	224	0	0	clay	352	224	0	stimuli\clay\clay_02s.jpg	1	-1	0	0	clay_02s.jpg	0	0.0	0	190.952328382351	191.002331308089	0.0500029257382266	201435
201.535	50	225	0	0	chickpea	325	225	0	stimuli\chickpea\chickpea_03s.jpg	2	-1	0	0	chickpea_03s.jpg	0	0.0	0	191.05234861857	191.10232789471002	0.0499792761402205	201535
201.635	50	226	0	0	shredder	1437	226	0	stimuli\shredder\shredder_08s.jpg	7	-1	0	0	shredder_08s.jpg	0	0.0	0	191.152347887109	191.20232643187	0.0499785447609611	201635
201.735	50	227	0	0	trunk	1722	227	0	stimuli\trunk\trunk_03s.jpg	2	-1	0	0	trunk_03s.jpg	0	0.0	0	191.25235251948502	191.30231862998298	0.0499661104986444	201735
201.835	50	228	0	0	grapevine	704	228	0	stimuli\grapevine\grapevine_01b.jpg	0	-1	0	0	grapevine_01b.jpg	0	0.0	0	191.35233252710898	191.402322043316	0.0499895162065513	201835
201.935	50	229	0	0	avocado	43	229	0	stimuli\avocado\avocado_04s.jpg	3	-1	0	0	avocado_04s.jpg	0	0.0	0	191.452357395727	191.502329113777	0.0499717180500738	201935
202.035	50	230	0	0	sewing_kit	1406	230	0	stimuli\sewing_kit\sewing_kit_06s.jpg	5	-1	0	0	sewing_kit_06s.jpg	0	0.0	0	191.552342523297	191.60231838613998	0.0499758628429845	202035
202.135	50	231	0	0	wheelchair	1808	231	0	stimuli\wheelchair\wheelchair_05s.jpg	4	-1	0	0	wheelchair_05s.jpg	0	0.0	0	191.652341060457	191.702348374762	0.0500073143048212	202135
202.235	50	232	0	0	petri_dish	1159	232	0	stimuli\petri_dish\petri_dish_07s.jpg	6	-1	0	0	petri_dish_07s.jpg	0	0.0	0	191.752347643313	191.80232862616	0.0499809828470461	202235
202.335	50	233	0	0	chopsticks	339	233	0	stimuli\chopsticks\chopsticks_06s.jpg	5	-1	0	0	chopsticks_06s.jpg	0	0.0	0	191.852349106164	191.90233179566002	0.0499826894956641	202335
202.435	50	234	0	0	stilt	1555	234	0	stimuli\stilt\stilt_01b.jpg	0	-1	0	0	stilt_01b.jpg	0	0.0	0	191.952376412868	192.002341060434	0.0499646475655027	202435
202.535	50	235	0	0	surfboard	1587	235	0	stimuli\surfboard\surfboard_01b.jpg	0	-1	0	0	surfboard_01b.jpg	0	0.0	0	192.05236032139499	192.102334477589	0.0499741561943665	202535
202.635	50	236	0	0	snowboard	1481	236	0	stimuli\snowboard\snowboard_11s.jpg	10	-1	0	0	snowboard_11s.jpg	0	0.0	0	192.15235349471902	192.202359833813	0.0500063390936702	202635
202.735	50	237	0	0	tostada	1688	237	0	stimuli\tostada\tostada_12s.jpg	11	-1	0	0	tostada_12s.jpg	0	0.0	0	192.252361784282	192.302337159519	0.049975375237409005	202735
202.835	50	238	0	0	nightstand	1059	238	0	stimuli\nightstand\nightstand_08s.jpg	7	-1	0	0	nightstand_08s.jpg	0	0.0	0	192.352357395692	192.402339841414	0.0499824457219802	202835
202.935	50	239	0	0	oven	1089	239	0	stimuli\oven\oven_12s.jpg	11	-1	0	0	oven_12s.jpg	0	0.0	0	192.452352519496	192.502347643313	0.0499951238161884	202935
203.035	50	240	0	0	flypaper	622	240	0	stimuli\flypaper\flypaper_06s.jpg	5	-1	0	0	flypaper_06s.jpg	0	0.0	0	192.55237031763	192.602365685219	0.0499953675898723	203035
203.135	50	241	0	0	combination_lock	390	241	0	stimuli\combination_lock\combination_lock_02s.jpg	1	-1	0	0	combination_lock_02s.jpg	0	0.0	0	192.652388847142	192.702376656642	0.0499878094997257	203135
203.235	50	242	0	0	poppy	1224	242	0	stimuli\poppy\poppy_12s.jpg	11	-1	0	0	poppy_12s.jpg	0	0.0	0	192.752393479517	192.802376412845	0.0499829333275557	203235
203.335	50	243	0	0	groundhog	718	243	0	stimuli\groundhog\groundhog_07s.jpg	6	-1	0	0	groundhog_07s.jpg	0	0.0	0	192.852398599556	192.902374706173	0.0499761066166684	203335
203.435	50	244	0	0	chaps	306	244	0	stimuli\chaps\chaps_04s.jpg	3	-1	0	0	chaps_04s.jpg	0	0.0	0	192.95239664905202	193.00238128902902	0.0499846399761736	203435
203.535	50	245	0	0	pine_tree	1181	245	0	stimuli\pine_tree\pine_tree_02s.jpg	1	-1	0	0	pine_tree_02s.jpg	0	0.0	0	193.052382020454	193.10235885856702	0.0499768381123431	203535
203.635	50	246	0	0	cutting_board	467	246	0	stimuli\cutting_board\cutting_board_01b.jpg	0	-1	0	0	cutting_board_01b.jpg	0	0.0	0	193.152379582403	193.202388603357	0.0500090209534392	203635
203.735	50	247	0	0	computer	394	247	0	stimuli\computer\computer_02s.jpg	1	-1	0	0	computer_02s.jpg	0	0.0	0	193.25241079001	193.30238616524701	0.049975375237409005	203735
203.835	50	248	0	0	shower	1433	248	0	stimuli\shower\shower_03s.jpg	2	-1	0	0	shower_03s.jpg	0	0.0	0	193.35241420334202	193.402386896661	0.0499726933194324	203835
203.935	50	249	0	0	railing	1277	249	0	stimuli\railing\railing_10s.jpg	9	-1	0	0	railing_10s.jpg	0	0.0	0	193.452411765233	193.502396161435	0.0499843962024897	203935
204.035	50	250	0	0	tack	1611	250	0	stimuli\tack\tack_05s.jpg	4	-1	0	0	tack_05s.jpg	0	0.0	0	193.55239616142399	193.602395186201	0.0499990247772075	204035
204.135	50	251	0	0	cashew	281	251	0	stimuli\cashew\cashew_09s.jpg	8	-1	0	0	cashew_09s.jpg	0	0.0	0	193.652414690994	193.702386409044	0.0499717180500738	204135
204.235	50	252	0	0	cellphone	293	252	0	stimuli\cellphone\cellphone_03s.jpg	2	-1	0	0	cellphone_03s.jpg	0	0.0	0	193.75242200528703	193.802381776681	0.0499597713933326	204235
204.335	50	253	0	0	leash	907	253	0	stimuli\leash\leash_09s.jpg	8	-1	0	0	leash_09s.jpg	0	0.0	0	193.852398599556	193.90238128905202	0.0499826894956641	204335
204.435	50	254	0	0	can	250	254	0	stimuli\can\can_11s.jpg	10	-1	0	0	can_11s.jpg	0	0.0	0	193.9524305386	194.002394210955	0.0499636723543517	204435
204.535	50	255	0	0	popsicle	1225	255	0	stimuli\popsicle\popsicle_11s.jpg	10	-1	0	0	popsicle_11s.jpg	0	0.0	0	194.052403963346	194.10240883956402	0.0500048762187362	204535
204.635	50	256	0	0	crystal_ball	455	256	0	stimuli\crystal_ball\crystal_ball_04s.jpg	3	-1	0	0	crystal_ball_04s.jpg	0	0.0	0	194.15240957099	194.20239664905202	0.0499870780622587	204635
204.735	50	257	0	0	garlic	658	257	0	stimuli\garlic\garlic_12n.jpg	11	-1	0	0	garlic_12n.jpg	0	0.0	0	194.252414690971	194.302394454775	0.0499797638040036	204735
204.835	50	258	0	0	roof_rack	1329	258	0	stimuli\roof_rack\roof_rack_02s.jpg	1	-1	0	0	roof_rack_02s.jpg	0	0.0	0	194.352411765256	194.402395917627	0.0499841523705982	204835
204.935	50	259	0	0	mouse2	1027	259	0	stimuli\mouse2\mouse2_05s.jpg	4	-1	0	0	mouse2_05s.jpg	0	0.0	0	194.452437365253	194.502401281439	0.0499639161862433	204935
205.035	50	260	0	0	swizzle_stick	1601	260	0	stimuli\swizzle_stick\swizzle_stick_03s.jpg	2	-1	0	0	swizzle_stick_03s.jpg	0	0.0	0	194.552419810963	194.60239835572398	0.0499785447609611	205035
205.135	50	261	0	0	column	388	261	0	stimuli\column\column_11s.jpg	10	-1	0	0	column_11s.jpg	0	0.0	0	194.652420542378	194.702406401455	0.0499858590774238	205135
205.235	50	262	0	0	chive	337	262	0	stimuli\chive\chive_08s.jpg	7	-1	0	0	chive_08s.jpg	0	0.0	0	194.75241688528303	194.80240493861498	0.0499880533316173	205235
205.335	50	263	0	0	turbine	1731	263	0	stimuli\turbine\turbine_07s.jpg	6	-1	0	0	turbine_07s.jpg	0	0.0	0	194.852428831917	194.902406401467	0.0499775695498101	205335
205.435	50	264	0	0	jewel	849	264	0	stimuli\jewel\jewel_01b.jpg	0	-1	0	0	jewel_01b.jpg	0	0.0	0	194.952421761467	195.002398111916	0.04997635044856	205435
205.535	50	265	0	0	corn	412	265	0	stimuli\corn\corn_09s.jpg	8	-1	0	0	corn_09s.jpg	0	0.0	0	195.052437121456	195.102434683358	0.0499975619022734	205535
205.635	50	266	0	0	fingerprint	589	266	0	stimuli\fingerprint\fingerprint_07s.jpg	6	-1	0	0	fingerprint_07s.jpg	0	0.0	0	195.152458089113	195.202420298592	0.0499622094794177	205635
205.735	50	267	0	0	bacon	51	267	0	stimuli\bacon\bacon_12s.jpg	11	-1	0	0	bacon_12s.jpg	0	0.0	0	195.25243834051102	195.30241664143998	0.0499783009290695	205735
205.835	50	268	0	0	slug	1472	268	0	stimuli\slug\slug_06s.jpg	5	-1	0	0	slug_06s.jpg	0	0.0	0	195.352440047194	195.402421517647	0.0499814704526216	205835
205.935	50	269	0	0	jetski	848	269	0	stimuli\jetski\jetski_10s.jpg	9	-1	0	0	jetski_10s.jpg	0	0.0	0	195.45244467956903	195.50242054241198	0.0499758628429845	205935
206.035	50	270	0	0	speedometer	1512	270	0	stimuli\speedometer\speedometer_06s.jpg	5	-1	0	0	speedometer_06s.jpg	0	0.0	0	195.552469060523	195.60243224527198	0.0499631847487763	206035
206.135	50	271	0	0	zebra	1851	271	0	stimuli\zebra\zebra_02s.jpg	1	-1	0	0	zebra_02s.jpg	0	0.0	0	195.652467841457	195.70245223766003	0.0499843962024897	206135
206.235	50	272	0	0	airboat	8	272	0	stimuli\airboat\airboat_04s.jpg	3	-1	0	0	airboat_04s.jpg	0	0.0	0	195.752473692934	195.802453944343	0.0499802514095791	206235
206.335	50	273	0	0	ice_cream	818	273	0	stimuli\ice_cream\ice_cream_01b.jpg	0	-1	0	0	ice_cream_01b.jpg	0	0.0	0	195.852460039547	195.90243760909698	0.0499775695498101	206335
206.435	50	274	0	0	extinguisher	563	274	0	stimuli\extinguisher\extinguisher_03s.jpg	2	-1	0	0	extinguisher_03s.jpg	0	0.0	0	195.95246174623	196.002442485304	0.0499807390733622	206435
206.535	50	275	0	0	sim_card	1446	275	0	stimuli\sim_card\sim_card_10s.jpg	9	-1	0	0	sim_card_10s.jpg	0	0.0	0	196.05246052716402	196.102442241448	0.0499817142845131	206535
206.635	50	276	0	0	camera1	246	276	0	stimuli\camera1\camera1_01b.jpg	0	-1	0	0	camera1_01b.jpg	0	0.0	0	196.15246174624198	196.202469791984	0.0500080457422882	206635
206.735	50	277	0	0	match	983	277	0	stimuli\match\match_01b.jpg	0	-1	0	0	match_01b.jpg	0	0.0	0	196.252484908153	196.30246711004298	0.0499822018900886	206735
206.835	50	278	0	0	engine	557	278	0	stimuli\engine\engine_01b.jpg	0	-1	0	0	engine_01b.jpg	0	0.0	0	196.352493685321	196.402474180504	0.049980495183263	206835
206.935	50	279	0	0	briefcase	200	279	0	stimuli\briefcase\briefcase_02s.jpg	1	-1	0	0	briefcase_02s.jpg	0	0.0	0	196.452476862411	196.50245516339803	0.0499783009872772	206935
207.035	50	280	0	0	juicer2	856	280	0	stimuli\juicer2\juicer2_03s.jpg	2	-1	0	0	juicer2_03s.jpg	0	0.0	0	196.552476618614	196.602461258648	0.0499846400343813	207035
207.135	50	281	0	0	sprouts	1524	281	0	stimuli\sprouts\sprouts_09s.jpg	8	-1	0	0	sprouts_09s.jpg	0	0.0	0	196.652475887211	196.70245491957803	0.0499790323665366	207135
207.235	50	282	0	0	lumber	949	282	0	stimuli\lumber\lumber_02s.jpg	1	-1	0	0	lumber_02s.jpg	0	0.0	0	196.752506119607	196.80246662243698	0.0499605028307997	207235
207.335	50	283	0	0	peg	1139	283	0	stimuli\peg\peg_09s.jpg	8	-1	0	0	peg_09s.jpg	0	0.0	0	196.852500755806	196.902471498644	0.0499707428389229	207335
207.435	50	284	0	0	braid	190	284	0	stimuli\braid\braid_10s.jpg	9	-1	0	0	braid_10s.jpg	0	0.0	0	196.952491978649	197.002488321508	0.0499963428592309	207435
207.535	50	285	0	0	mailbox	960	285	0	stimuli\mailbox\mailbox_10s.jpg	9	-1	0	0	mailbox_10s.jpg	0	0.0	0	197.052508070075	197.10249149100898	0.0499834209331311	207535
207.635	50	286	0	0	bobsled	155	286	0	stimuli\bobsled\bobsled_05s.jpg	4	-1	0	0	bobsled_05s.jpg	0	0.0	0	197.152517091017	197.202474180551	0.0499570895335637	207635
207.735	50	287	0	0	dirt_bike	488	287	0	stimuli\dirt_bike\dirt_bike_09s.jpg	8	-1	0	0	dirt_bike_09s.jpg	0	0.0	0	197.252500511997	197.302464184351	0.0499636723543517	207735
207.835	50	288	0	0	bathtub	91	288	0	stimuli\bathtub\bathtub_04s.jpg	3	-1	0	0	bathtub_04s.jpg	0	0.0	0	197.352492466278	197.402474668168	0.0499822018900886	207835
207.935	50	289	0	0	pennant	1148	289	0	stimuli\pennant\pennant_06s.jpg	5	-1	0	0	pennant_06s.jpg	0	0.0	0	197.45252391771598	197.50248125102402	0.0499573333072476	207935
208.035	50	290	0	0	ratchet	1286	290	0	stimuli\ratchet\ratchet_11s.jpg	10	-1	0	0	ratchet_11s.jpg	0	0.0	0	197.552500999591	197.60247735003898	0.04997635044856	208035
208.135	50	291	0	0	lightbulb	927	291	0	stimuli\lightbulb\lightbulb_06s.jpg	5	-1	0	0	lightbulb_06s.jpg	0	0.0	0	197.65250051196202	197.702481982415	0.0499814704526216	208135
208.235	50	292	0	0	rain_gauge	1278	292	0	stimuli\rain_gauge\rain_gauge_03s.jpg	2	-1	0	0	rain_gauge_03s.jpg	0	0.0	0	197.752505632001	197.802485639579	0.0499800075776875	208235
208.335	50	293	0	0	coverall	425	293	0	stimuli\coverall\coverall_05s.jpg	4	-1	0	0	coverall_05s.jpg	0	0.0	0	197.85250587581	197.9024880777	0.0499822018900886	208335
208.435	50	294	0	0	pocket	1205	294	0	stimuli\pocket\pocket_11s.jpg	10	-1	0	0	pocket_11s.jpg	0	0.0	0	197.952521723404	198.00249612343003	0.0499744000262581	208435
208.535	50	295	0	0	aardvark	0	295	0	stimuli\aardvark\aardvark_10s.jpg	9	-1	0	0	aardvark_10s.jpg	0	0.0	0	198.052514409123	198.102494660532	0.0499802514095791	208535
208.635	50	296	0	0	cash_machine	279	296	0	stimuli\cash_machine\cash_machine_03s.jpg	2	-1	0	0	cash_machine_03s.jpg	0	0.0	0	198.152513433888	198.202490272	0.0499768381123431	208635
208.735	50	297	0	0	cabinet	233	297	0	stimuli\cabinet\cabinet_05s.jpg	4	-1	0	0	cabinet_05s.jpg	0	0.0	0	198.252506119607	198.302501243423	0.0499951238161884	208735
208.835	50	298	0	0	mattress	985	298	0	stimuli\mattress\mattress_09s.jpg	8	-1	0	0	mattress_09s.jpg	0	0.0	0	198.35252294247	198.402515140537	0.0499921980663203	208835
208.935	50	299	0	0	rag	1276	299	0	stimuli\rag\rag_03s.jpg	2	-1	0	0	rag_03s.jpg	0	0.0	0	198.45252391771598	198.502508801525	0.0499848838080652	208935
209.035	50	300	0	0	duck	525	300	0	stimuli\duck\duck_10s.jpg	9	-1	0	0	duck_10s.jpg	0	0.0	0	198.552535132971	198.602506851021	0.0499717180500738	209035
209.135	50	301	0	0	arch	35	301	0	stimuli\arch\arch_01b.jpg	0	-1	0	0	arch_01b.jpg	0	0.0	0	198.6525287939	198.702511483396	0.0499826894956641	209135
209.235	50	302	0	0	pearl	1134	302	0	stimuli\pearl\pearl_11s.jpg	10	-1	0	0	pearl_11s.jpg	0	0.0	0	198.75251782249	198.802518066252	0.0500002437620424	209235
209.335	50	303	0	0	toothbrush	1679	303	0	stimuli\toothbrush\toothbrush_05s.jpg	4	-1	0	0	toothbrush_05s.jpg	0	0.0	0	198.852554637706	198.902525136771	0.04997049906523901	209335
209.435	50	304	0	0	grits	717	304	0	stimuli\grits\grits_08s.jpg	7	-1	0	0	grits_08s.jpg	0	0.0	0	198.952560976788	199.00254317867802	0.0499822018900886	209435
209.535	50	305	0	0	coconut	375	305	0	stimuli\coconut\coconut_01b.jpg	0	-1	0	0	coconut_01b.jpg	0	0.0	0	199.052564633894	199.10252416151297	0.0499595276196487	209535
209.635	50	306	0	0	napkin_ring	1051	306	0	stimuli\napkin_ring\napkin_ring_07s.jpg	6	-1	0	0	napkin_ring_07s.jpg	0	0.0	0	199.152548298647	199.202526843408	0.0499785447609611	209635
209.735	50	307	0	0	lava	903	307	0	stimuli\lava\lava_01b.jpg	0	-1	0	0	lava_01b.jpg	0	0.0	0	199.25254512915902	199.30252367391898	0.0499785447609611	209735
209.835	50	308	0	0	gargoyle	657	308	0	stimuli\gargoyle\gargoyle_02s.jpg	1	-1	0	0	gargoyle_02s.jpg	0	0.0	0	199.35254610440498	199.40253415773603	0.0499880533316173	209835
224.685	50	309	0	0	snack	1475	0	1	stimuli\snack\snack_06s.jpg	5	-1	1	0	snack_06s.jpg	1	0.0	0	214.202955460816	214.25293327413996	0.049977813323494	224685
224.785	50	310	0	0	meatloaf	990	1	1	stimuli\meatloaf\meatloaf_02s.jpg	1	-1	1	0	meatloaf_02s.jpg	0	0.0	0	214.302949365578	214.352925228421	0.0499758628429845	224785
224.885	50	311	0	0	stove1	1563	2	1	stimuli\stove1\stove1_06s.jpg	5	-1	1	0	stove1_06s.jpg	0	0.0	0	214.402947415132	214.452926203667	0.049978788534645	224885
224.985	50	312	0	0	lifesaver	925	3	1	stimuli\lifesaver\lifesaver_07s.jpg	6	-1	1	0	lifesaver_07s.jpg	0	0.0	0	214.502947415109	214.55293059226798	0.0499831771594472	224985
225.085	50	313	0	0	ironing_board	833	4	1	stimuli\ironing_board\ironing_board_05s.jpg	4	-1	1	0	ironing_board_05s.jpg	0	0.0	0	214.60295351035901	214.652931323682	0.049977813323494	225085
225.185	50	314	0	0	bird	128	5	1	stimuli\bird\bird_11s.jpg	10	-1	1	0	bird_11s.jpg	0	0.0	0	214.702954485605	214.752930348448	0.0499758628429845	225185
225.285	50	315	0	0	comic_book	391	6	1	stimuli\comic_book\comic_book_02s.jpg	1	-1	1	0	comic_book_02s.jpg	0	0.0	0	214.80295765510502	214.852939125558	0.0499814704526216	225285
225.385	50	316	0	0	soda_fountain	1491	7	1	stimuli\soda_fountain\soda_fountain_02s.jpg	1	-1	1	0	soda_fountain_02s.jpg	0	0.0	0	214.902957898914	214.952965213219	0.0500073143048212	225385
225.485	50	317	0	0	blanket	136	8	1	stimuli\blanket\blanket_08s.jpg	7	-1	1	0	blanket_08s.jpg	0	0.0	0	215.002986668493	215.052973990387	0.0499873218941502	225485
225.585	50	318	0	0	clipboard	355	9	1	stimuli\clipboard\clipboard_05s.jpg	4	-1	1	0	clipboard_05s.jpg	0	0.0	0	215.102992763685	215.152974721801	0.0499819581164047	225585
225.685	50	319	0	0	backpack	49	10	1	stimuli\backpack\backpack_02s.jpg	1	-1	1	0	backpack_02s.jpg	0	0.0	0	215.20299178845002	215.252942538937	0.0499507504864596	225685
225.785	50	320	0	0	power_line	1237	11	1	stimuli\power_line\power_line_12s.jpg	11	-1	1	0	power_line_12s.jpg	0	0.0	0	215.302968382719	215.352949609398	0.0499812266789377	225785
225.885	50	321	0	0	yogurt	1848	12	1	stimuli\yogurt\yogurt_01s.jpg	0	-1	1	0	yogurt_01s.jpg	0	0.0	0	215.40296838275398	215.45294839033198	0.0499800075776875	225885
225.985	50	322	0	0	airplane	10	13	1	stimuli\airplane\airplane_05n.jpg	4	-1	1	0	airplane_05n.jpg	0	0.0	0	215.502971796086	215.552983498957	0.0500117028714158	225985
226.085	50	323	0	0	woman	1832	14	1	stimuli\woman\woman_10s.jpg	9	-1	1	0	woman_10s.jpg	0	0.0	0	215.603009586572	215.65298983798098	0.0499802514095791	226085
226.185	50	324	0	0	bungee	221	15	1	stimuli\bungee\bungee_07s.jpg	6	-1	1	0	bungee_07s.jpg	0	0.0	0	215.70300495420798	215.75297033321098	0.0499653790029697	226185
226.285	50	325	0	0	tie	1658	16	1	stimuli\tie\tie_05s.jpg	4	-1	1	0	tie_05s.jpg	0	0.0	0	215.803011537064	215.852973746543	0.0499622094794177	226285
226.385	50	326	0	0	raspberry	1284	17	1	stimuli\raspberry\raspberry_10n.jpg	9	-1	1	0	raspberry_10n.jpg	0	0.0	0	215.90299471421199	215.952979841793	0.0499851275817491	226385
226.485	50	327	0	0	clipper1	356	18	1	stimuli\clipper1\clipper1_08s.jpg	7	-1	1	0	clipper1_08s.jpg	0	0.0	0	216.00300007802397	216.052982279914	0.0499822018900886	226485
226.585	50	328	0	0	ferry	580	19	1	stimuli\ferry\ferry_12s.jpg	11	-1	1	1	ferry_12s.jpg	0	0.0	0	216.10300373513002	216.15298398654	0.0499802514095791	226585
226.685	50	329	0	0	ball	59	20	1	stimuli\ball\ball_10s.jpg	9	-1	1	0	ball_10s.jpg	0	0.0	0	216.20302104560002	216.252990813227	0.0499697676277719	226685
226.785	50	330	0	0	pony	1220	21	1	stimuli\pony\pony_04s.jpg	3	-1	1	0	pony_04s.jpg	0	0.0	0	216.30302762851397	216.353006904654	0.0499792761402205	226785
226.885	50	331	0	0	leotard	918	22	1	stimuli\leotard\leotard_01b.jpg	0	-1	1	0	leotard_01b.jpg	0	0.0	0	216.40300812374298	216.452977647481	0.0499695237376727	226885
226.985	50	332	0	0	shelf	1416	23	1	stimuli\shelf\shelf_08s.jpg	7	-1	1	0	shelf_08s.jpg	1	0.39217907335842	1	216.502999590361	216.552995201782	0.0499956114217639	226985
227.085	50	333	0	0	gumball	725	24	1	stimuli\gumball\gumball_10s.jpg	9	-1	1	0	gumball_10s.jpg	0	0.0	0	216.60300714848597	216.652984961809	0.049977813323494	227085
227.185	50	334	0	0	shoelace	1426	25	1	stimuli\shoelace\shoelace_10s.jpg	9	-1	1	0	shoelace_10s.jpg	0	0.0	0	216.703013975173	216.75299300753997	0.0499790323665366	227185
227.285	50	335	0	0	oyster	1092	26	1	stimuli\oyster\oyster_11n.jpg	10	-1	1	0	oyster_11n.jpg	0	0.0	0	216.80301056179502	216.852995689434	0.0499851276399568	227285
227.385	50	336	0	0	horn	797	27	1	stimuli\horn\horn_07s.jpg	6	-1	1	0	horn_07s.jpg	0	0.0	0	216.90301251231003	216.952993738931	0.049981226620730006	227385
227.485	50	337	0	0	tumbleweed	1727	28	1	stimuli\tumbleweed\tumbleweed_12s.jpg	11	-1	1	0	tumbleweed_12s.jpg	0	0.0	0	217.00302031420898	217.05299763992699	0.0499773257179186	227485
227.585	50	338	0	0	bathmat	89	29	1	stimuli\bathmat\bathmat_10s.jpg	9	-1	1	0	bathmat_10s.jpg	0	0.0	0	217.103016657056	217.15299666463403	0.0499800075776875	227585
227.685	50	339	0	0	parachute	1118	30	1	stimuli\parachute\parachute_10s.jpg	9	-1	1	0	parachute_10s.jpg	0	0.0	0	217.20301787607602	217.252997883712	0.0499800076358952	227685
227.785	50	340	0	0	ottoman	1086	31	1	stimuli\ottoman\ottoman_03s.jpg	2	-1	1	0	ottoman_03s.jpg	0	0.0	0	217.30305200943297	217.353031041799	0.0499790323665366	227785
227.885	50	341	0	0	ankle	22	32	1	stimuli\ankle\ankle_12s.jpg	11	-1	1	0	ankle_12s.jpg	0	0.0	0	217.40305225324101	217.453019095177	0.0499668419361115	227885
227.985	50	342	0	0	rice	1309	33	1	stimuli\rice\rice_02s.jpg	1	-1	1	0	rice_02s.jpg	0	0.0	0	217.503048839921	217.553040794213	0.0499919542926364	227985
228.085	50	343	0	0	razor_blade	1291	34	1	stimuli\razor_blade\razor_blade_08s.jpg	7	-1	1	0	razor_blade_08s.jpg	0	0.0	0	217.60306078661202	217.6530200704	0.0499592837877572	228085
228.185	50	344	0	0	bush	227	35	1	stimuli\bush\bush_01s.jpg	0	-1	1	0	bush_01s.jpg	0	0.0	0	217.703044695139	217.75302055798198	0.0499758628429845	228185
228.285	50	345	0	0	radar	1271	36	1	stimuli\radar\radar_01s.jpg	0	-1	1	0	radar_01s.jpg	0	0.0	0	217.803068588488	217.853033236112	0.0499646476237103	228285
228.385	50	346	0	0	knot	883	37	1	stimuli\knot\knot_07s.jpg	6	-1	1	0	knot_07s.jpg	0	0.0	0	217.903066150437	217.953034942795	0.0499687923584133	228385
228.485	50	347	0	0	trough	1718	38	1	stimuli\trough\trough_01b.jpg	0	-1	1	0	trough_01b.jpg	0	0.0	0	218.003050058964	218.05302445899	0.0499744000262581	228485
228.585	50	348	0	0	eyedropper	566	39	1	stimuli\eyedropper\eyedropper_04s.jpg	3	-1	1	0	eyedropper_04s.jpg	0	0.0	0	218.103074927581	218.15305005898702	0.0499751314055175	228585
228.685	50	349	0	0	button2	231	40	1	stimuli\button2\button2_09s.jpg	8	-1	1	0	button2_09s.jpg	0	0.0	0	218.20307590282798	218.25305688567502	0.0499809828470461	228685
228.785	50	350	0	0	hotplate	806	41	1	stimuli\hotplate\hotplate_03s.jpg	2	-1	1	0	hotplate_03s.jpg	0	0.0	0	218.303064931359	218.35301129322	0.0499463618616574	228785
228.885	50	351	0	0	coal	367	42	1	stimuli\coal\coal_06s.jpg	5	-1	1	0	coal_06s.jpg	0	0.0	0	218.40305005898702	218.453032260877	0.0499822018900886	228885
228.985	50	352	0	0	eclair	544	43	1	stimuli\eclair\eclair_04s.jpg	3	-1	1	0	eclair_04s.jpg	0	0.0	0	218.503085655218	218.55306444375302	0.049978788534645	228985
229.085	50	353	0	0	block	143	44	1	stimuli\block\block_12s.jpg	11	-1	1	0	block_12s.jpg	0	0.0	0	218.603066394222	218.65303981897898	0.0499734247568995	229085
229.185	50	354	0	0	cabbage	232	45	1	stimuli\cabbage\cabbage_04s.jpg	3	-1	1	0	cabbage_04s.jpg	0	0.0	0	218.70306395611303	218.75307590281602	0.0500119467033073	229185
229.285	50	355	0	0	sandal	1352	46	1	stimuli\sandal\sandal_11s.jpg	10	-1	1	0	sandal_11s.jpg	0	0.0	0	218.80309150664797	218.853070051351	0.0499785447027534	229285
229.385	50	356	0	0	hook2	794	47	1	stimuli\hook2\hook2_04s.jpg	3	-1	1	0	hook2_04s.jpg	0	0.0	0	218.903093700937	218.95307200186699	0.0499783009290695	229385
229.485	50	357	0	0	key	869	48	1	stimuli\key\key_11s.jpg	10	-1	1	0	key_11s.jpg	0	0.0	0	219.00309540756302	219.053078097117	0.0499826895538718	229485
229.585	50	358	0	0	scallion	1372	49	1	stimuli\scallion\scallion_01b.jpg	0	-1	1	0	scallion_01b.jpg	0	0.0	0	219.103102478082	219.153061274206	0.049958796123974004	229585
229.685	50	359	0	0	cannonball	261	50	1	stimuli\cannonball\cannonball_10s.jpg	9	-1	1	0	cannonball_10s.jpg	0	0.0	0	219.203099308535	219.25308443611698	0.0499851275817491	229685
229.785	50	360	0	0	octopus	1070	51	1	stimuli\octopus\octopus_12s.jpg	11	-1	1	0	octopus_12s.jpg	0	0.0	0	219.30308979994203	219.353057129483	0.0499673295416869	229785
229.885	50	361	0	0	pheasant	1160	52	1	stimuli\pheasant\pheasant_01b.jpg	0	-1	1	0	pheasant_01b.jpg	0	0.0	0	219.40307760948798	219.453057373292	0.0499797638040036	229885
229.985	50	362	0	0	handlebar	749	53	1	stimuli\handlebar\handlebar_04s.jpg	3	-1	1	0	handlebar_04s.jpg	0	0.0	0	219.50309491995702	219.553064687585	0.0499697676277719	229985
230.085	50	363	0	0	gyro	730	54	1	stimuli\gyro\gyro_02s.jpg	1	-1	1	0	gyro_02s.jpg	0	0.0	0	219.603086630406	219.65306736948003	0.0499807390733622	230085
230.185	50	364	0	0	jar	840	55	1	stimuli\jar\jar_04s.jpg	3	-1	1	0	jar_04s.jpg	0	0.0	0	219.703087605652	219.753070051374	0.0499824457219802	230185
230.285	50	365	0	0	bolt	159	56	1	stimuli\bolt\bolt_08n.jpg	7	-1	1	0	bolt_08n.jpg	0	0.0	0	219.803091994254	219.853075415187	0.0499834209331311	230285
230.385	50	366	0	0	straightjacket	1565	57	1	stimuli\straightjacket\straightjacket_01b.jpg	0	-1	1	0	straightjacket_01b.jpg	0	0.0	0	219.903094188543	219.953074927558	0.0499807390151545	230385
230.485	50	367	0	0	spatula	1508	58	1	stimuli\spatula\spatula_08s.jpg	7	-1	1	0	spatula_08s.jpg	0	0.0	0	220.003126859025	220.053104428516	0.0499775694916025	230485
230.585	50	368	0	0	puppy	1258	59	1	stimuli\puppy\puppy_09s.jpg	8	-1	1	0	puppy_09s.jpg	0	0.0	0	220.103124664747	220.153102721844	0.049978057097178	230585
230.685	50	369	0	0	cockatoo	372	60	1	stimuli\cockatoo\cockatoo_04s.jpg	3	-1	1	0	cockatoo_04s.jpg	0	0.0	0	220.20312954095402	220.253106379008	0.0499768380541354	230685
230.785	50	370	0	0	mast	981	61	1	stimuli\mast\mast_04s.jpg	3	-1	1	0	mast_04s.jpg	0	0.0	0	220.303105159954	220.35308687423802	0.0499817142845131	230785
230.885	50	371	0	0	stained_glass	1531	62	1	stimuli\stained_glass\stained_glass_08s.jpg	7	-1	1	0	stained_glass_08s.jpg	0	0.0	0	220.403106866637	220.45309101900799	0.0499841523705982	230885
230.985	50	372	0	0	tag	1616	63	1	stimuli\tag\tag_01b.jpg	0	-1	1	0	tag_01b.jpg	0	0.0	0	220.503111986618	220.553092481859	0.0499804952414706	230985
231.085	50	373	0	0	chihuahua	326	64	1	stimuli\chihuahua\chihuahua_06s.jpg	5	-1	1	0	chihuahua_06s.jpg	0	0.0	0	220.60311418090697	220.653093944711	0.0499797638040036	231085
231.185	50	374	0	0	magnet	956	65	1	stimuli\magnet\magnet_06s.jpg	5	-1	1	0	magnet_06s.jpg	0	0.0	0	220.703112474235	220.753127102857	0.0500146286212839	231185
231.285	50	375	0	0	ruler	1341	66	1	stimuli\ruler\ruler_03s.jpg	2	-1	1	0	ruler_03s.jpg	0	0.0	0	220.803144413338	220.853133929486	0.0499895161483437	231285
231.385	50	376	0	0	grape	702	67	1	stimuli\grape\grape_04s.jpg	3	-1	1	0	grape_04s.jpg	0	0.0	0	220.90313319809502	220.953156116186	0.0500229180906899	231385
231.485	50	377	0	0	hot_chocolate	803	68	1	stimuli\hot_chocolate\hot_chocolate_05s.jpg	4	-1	1	0	hot_chocolate_05s.jpg	0	0.0	0	221.003152702877	221.05312368948898	0.0499709866126068	231485
231.585	50	378	0	0	waffle_iron	1771	69	1	stimuli\waffle_iron\waffle_iron_09s.jpg	8	-1	1	0	waffle_iron_09s.jpg	0	0.0	0	221.10313514852902	221.153137099056	0.0500019505270757	231585
231.685	50	379	0	0	coat_rack	370	70	1	stimuli\coat_rack\coat_rack_05s.jpg	4	-1	1	0	coat_rack_05s.jpg	0	0.0	0	221.203160748584	221.253109792364	0.0499490437796339	231685
231.785	50	380	0	0	nest	1056	71	1	stimuli\nest\nest_12s.jpg	11	-1	1	0	nest_12s.jpg	0	0.0	0	221.30313124757998	221.353107354254	0.0499761066748761	231785
231.885	50	381	0	0	shield	1420	72	1	stimuli\shield\shield_06s.jpg	5	-1	1	0	shield_06s.jpg	0	0.0	0	221.40313173522003	221.453112474235	0.0499807390151545	231885
231.985	50	382	0	0	clove	365	73	1	stimuli\clove\clove_03s.jpg	2	-1	1	0	clove_03s.jpg	0	0.0	0	221.503151483776	221.55314977711498	0.0499982933397405	231985
232.085	50	383	0	0	necklace	1054	74	1	stimuli\necklace\necklace_07s.jpg	6	-1	1	0	necklace_07s.jpg	0	0.0	0	221.603164893342	221.653143925709	0.0499790323665366	232085
232.185	50	384	0	0	headlight	765	75	1	stimuli\headlight\headlight_11s.jpg	10	-1	1	0	headlight_11s.jpg	0	0.0	0	221.703152459057	221.753147826646	0.0499953675898723	232185
232.285	50	385	0	0	yo-yo	1847	76	1	stimuli\yo-yo\yo-yo_01s.jpg	0	-1	1	0	yo-yo_01s.jpg	0	0.0	0	221.803150752385	221.85312271426702	0.0499719618819654	232285
232.385	50	386	0	0	denture	478	77	1	stimuli\denture\denture_07s.jpg	6	-1	1	0	denture_07s.jpg	0	0.0	0	221.903143438103	221.953123689513	0.0499802514095791	232385
232.485	50	387	0	0	goat	684	78	1	stimuli\goat\goat_02n.jpg	1	-1	1	0	goat_02n.jpg	0	0.0	0	222.003180740983	222.05316050478697	0.0499797638040036	232485
232.585	50	388	0	0	tray	1705	79	1	stimuli\tray\tray_11s.jpg	10	-1	1	0	tray_11s.jpg	0	0.0	0	222.103178546706	222.153159773326	0.049981226620730006	232585
232.685	50	389	0	0	artichoke	39	80	1	stimuli\artichoke\artichoke_06s.jpg	5	-1	1	0	artichoke_06s.jpg	0	0.0	0	222.20318122860002	222.253133441904	0.049952213303186	232685
232.785	50	390	0	0	asparagus	42	81	1	stimuli\asparagus\asparagus_08s.jpg	7	-1	1	0	asparagus_08s.jpg	0	0.0	0	222.30315879807998	222.35313709900902	0.0499783009290695	232785
232.885	50	391	0	0	rooster	1330	82	1	stimuli\rooster\rooster_05s.jpg	4	-1	1	0	rooster_05s.jpg	0	0.0	0	222.40315733524	222.45313978096198	0.0499824457219802	232885
232.985	50	392	0	0	scaffold	1369	83	1	stimuli\scaffold\scaffold_04s.jpg	3	-1	1	0	scaffold_04s.jpg	0	0.0	0	222.50316148001	222.553140024771	0.0499785447609611	232985
233.085	50	393	0	0	brace	186	84	1	stimuli\brace\brace_10s.jpg	9	-1	1	0	brace_10s.jpg	0	0.0	0	222.60319585714	222.65315709140899	0.0499612342682667	233085
233.185	50	394	0	0	yarn	1846	85	1	stimuli\yarn\yarn_03s.jpg	2	-1	1	0	yarn_03s.jpg	0	0.0	0	222.70318122860002	222.753175377147	0.0499941485468298	233185
233.285	50	395	0	0	awning	44	86	1	stimuli\awning\awning_05s.jpg	4	-1	1	0	awning_05s.jpg	0	0.0	0	222.803176840011	222.853147582849	0.0499707428389229	233285
233.385	50	396	0	0	mouse1	1026	87	1	stimuli\mouse1\mouse1_06s.jpg	5	-1	1	0	mouse1_06s.jpg	0	0.0	0	222.903169769503	222.953154409537	0.0499846400343813	233385
233.485	50	397	0	0	fruitcake	646	88	1	stimuli\fruitcake\fruitcake_11s.jpg	10	-1	1	0	fruitcake_11s.jpg	1	0.0	0	223.003180740983	223.05316074856097	0.0499800075776875	233485
233.585	50	398	0	0	rabbit	1265	89	1	stimuli\rabbit\rabbit_04n.jpg	3	-1	1	0	rabbit_04n.jpg	0	0.0	0	223.103178790479	223.15316050476397	0.0499817142845131	233585
233.685	50	399	0	0	shrimp	1438	90	1	stimuli\shrimp\shrimp_01b.jpg	0	-1	1	0	shrimp_01b.jpg	0	0.0	0	223.203182447643	223.253165137139	0.0499826894956641	233685
233.785	50	400	0	0	mistletoe	1007	91	1	stimuli\mistletoe\mistletoe_05n.jpg	4	-1	1	0	mistletoe_05n.jpg	0	0.0	0	223.303189030499	223.35316562477996	0.0499765942804515	233785
233.885	50	401	0	0	ravioli	1289	92	1	stimuli\ravioli\ravioli_11s.jpg	10	-1	1	0	ravioli_11s.jpg	0	0.0	0	223.403199514316	223.453165868588	0.0499663542723283	233885
233.985	50	402	0	0	doorhandle	508	93	1	stimuli\doorhandle\doorhandle_06s.jpg	5	-1	1	0	doorhandle_06s.jpg	0	0.0	0	223.50322023814098	223.553198782902	0.0499785447609611	233985
234.085	50	403	0	0	puffin	1248	94	1	stimuli\puffin\puffin_11s.jpg	10	-1	1	0	puffin_11s.jpg	0	0.0	0	223.603218043863	223.653182203823	0.0499641599599272	234085
234.185	50	404	0	0	caramel	270	95	1	stimuli\caramel\caramel_11s.jpg	10	-1	1	1	caramel_11s.jpg	0	0.0	0	223.70322438288702	223.753185617155	0.0499612342682667	234185
234.285	50	405	0	0	checkers	311	96	1	stimuli\checkers\checkers_11s.jpg	10	-1	1	0	checkers_11s.jpg	0	0.0	0	223.80321731243697	223.85319829528498	0.0499809828470461	234285
234.385	50	406	0	0	yolk	1850	97	1	stimuli\yolk\yolk_12s.jpg	11	-1	1	0	yolk_12s.jpg	0	0.0	0	223.903216824809	223.953196344781	0.049979519972112	234385
234.485	50	407	0	0	siren	1448	98	1	stimuli\siren\siren_07s.jpg	6	-1	1	0	siren_07s.jpg	0	0.0	0	224.003203659086	224.053189030499	0.0499853714136407	234485
234.585	50	408	0	0	curb	462	99	1	stimuli\curb\curb_09s.jpg	8	-1	1	0	curb_09s.jpg	0	0.0	0	224.10323437908698	224.153187323827	0.049952944740653	234585
234.685	50	409	0	0	blouse	144	100	1	stimuli\blouse\blouse_11s.jpg	10	-1	1	0	blouse_11s.jpg	0	0.0	0	224.203210241918	224.253213655262	0.0500034133438021	234685
234.785	50	410	0	0	rhinoceros	1306	101	1	stimuli\rhinoceros\rhinoceros_03s.jpg	2	-1	1	0	rhinoceros_03s.jpg	0	0.0	0	224.303239011497	224.35322218859798	0.0499831771012396	234785
234.885	50	411	0	0	shower_curtain	1435	102	1	stimuli\shower_curtain\shower_curtain_07s.jpg	6	-1	1	0	shower_curtain_07s.jpg	0	0.0	0	224.403240718122	224.45320536574602	0.0499646476237103	234885
234.985	50	412	0	0	spam	1504	103	1	stimuli\spam\spam_11s.jpg	10	-1	1	0	spam_11s.jpg	0	0.0	0	224.50324169336798	224.553202196199	0.0499605028307997	234985
235.085	50	413	0	0	gavel	665	104	1	stimuli\gavel\gavel_10s.jpg	9	-1	1	0	gavel_10s.jpg	0	0.0	0	224.60321755619998	224.65320877905498	0.0499912228551693	235085
235.185	50	414	0	0	tadpole	1614	105	1	stimuli\tadpole\tadpole_11s.jpg	10	-1	1	0	tadpole_11s.jpg	0	0.0	0	224.70323169720402	224.753214386699	0.0499826894956641	235185
235.285	50	415	0	0	barrel	76	106	1	stimuli\barrel\barrel_03s.jpg	2	-1	1	0	barrel_03s.jpg	0	0.0	0	224.803235598141	224.853211460984	0.0499758628429845	235285
235.385	50	416	0	0	cucumber	457	107	1	stimuli\cucumber\cucumber_04s.jpg	3	-1	1	0	cucumber_04s.jpg	0	0.0	0	224.903235598118	224.953218287672	0.0499826895538718	235385
235.485	50	417	0	0	batter	96	108	1	stimuli\batter\batter_10s.jpg	9	-1	1	0	batter_10s.jpg	0	0.0	0	225.003266561951	225.05324461910598	0.0499780571553856	235485
235.585	50	418	0	0	omelet	1076	109	1	stimuli\omelet\omelet_12s.jpg	11	-1	1	0	omelet_12s.jpg	0	0.0	0	225.10324608197	225.15322560194198	0.049979519972112	235585
235.685	50	419	0	0	banana_peel	64	110	1	stimuli\banana_peel\banana_peel_08s.jpg	7	-1	1	0	banana_peel_08s.jpg	0	0.0	0	225.2032672934	225.25324656959899	0.0499792761984281	235685
235.785	50	420	0	0	gingerbread_man	674	111	1	stimuli\gingerbread_man\gingerbread_man_03s.jpg	2	-1	1	0	gingerbread_man_03s.jpg	0	0.0	0	225.30327338865	225.35323316004397	0.0499597713933326	235785
235.885	50	421	0	0	nutcracker	1067	112	1	stimuli\nutcracker\nutcracker_10s.jpg	9	-1	1	0	nutcracker_10s.jpg	0	0.0	0	225.40327070670898	225.45323632954398	0.0499656228348613	235885
235.985	50	422	0	0	string_cheese	1573	113	1	stimuli\string_cheese\string_cheese_07s.jpg	6	-1	1	0	string_cheese_07s.jpg	0	0.0	0	225.503275582916	225.553242424794	0.0499668418779038	235985
236.085	50	423	0	0	brooch	202	114	1	stimuli\brooch\brooch_07s.jpg	6	-1	1	0	brooch_07s.jpg	0	0.0	0	225.60325364006002	225.653233403864	0.0499797638040036	236085
236.185	50	424	0	0	mullet	1039	115	1	stimuli\mullet\mullet_07s.jpg	6	-1	1	0	mullet_07s.jpg	0	0.0	0	225.703257784829	225.753271681955	0.0500138971256092	236185
236.285	50	425	0	0	cuckoo_clock	456	116	1	stimuli\cuckoo_clock\cuckoo_clock_06s.jpg	5	-1	1	0	cuckoo_clock_06s.jpg	0	0.0	0	225.803267293377	225.85324291244598	0.0499756190693006	236285
236.385	50	426	0	0	drum	522	117	1	stimuli\drum\drum_02s.jpg	1	-1	1	0	drum_02s.jpg	0	0.0	0	225.903262661013	225.95324364386002	0.0499809828470461	236385
236.485	50	427	0	0	tank1	1620	118	1	stimuli\tank1\tank1_12s.jpg	11	-1	1	0	tank1_12s.jpg	0	0.0	0	226.003268268658	226.05324681336103	0.0499785447027534	236485
236.585	50	428	0	0	fence	575	119	1	stimuli\fence\fence_02s.jpg	1	-1	1	0	fence_02s.jpg	0	0.0	0	226.103250470536	226.15327460767003	0.0500241371337324	236585
236.685	50	429	0	0	buoy	223	120	1	stimuli\buoy\buoy_05s.jpg	4	-1	1	0	buoy_05s.jpg	0	0.0	0	226.20329581911201	226.25327753339698	0.0499817142845131	236685
236.785	50	430	0	0	wall	1775	121	1	stimuli\wall\wall_07s.jpg	6	-1	1	0	wall_07s.jpg	0	0.0	0	226.30330215819401	226.353280215291	0.049978057097178	236785
236.885	50	431	0	0	cockroach	373	122	1	stimuli\cockroach\cockroach_08s.jpg	7	-1	1	0	cockroach_08s.jpg	0	0.0	0	226.403300695296	226.45328338485	0.0499826895538718	236885
236.985	50	432	0	0	stick	1552	123	1	stimuli\stick\stick_07s.jpg	6	-1	1	0	stick_07s.jpg	0	0.0	0	226.503296062932	226.553269243857	0.0499731809250079	236985
237.085	50	433	0	0	zipper	1852	124	1	stimuli\zipper\zipper_03s.jpg	2	-1	1	0	zipper_03s.jpg	0	0.0	0	226.60328387247898	226.653265586705	0.0499817142263055	237085
237.185	50	434	0	0	gravestone	710	125	1	stimuli\gravestone\gravestone_12s.jpg	11	-1	1	0	gravestone_12s.jpg	0	0.0	0	226.70328972389703	226.753269487701	0.0499797638040036	237185
237.285	50	435	0	0	mole	1014	126	1	stimuli\mole\mole_06s.jpg	5	-1	1	0	mole_06s.jpg	0	0.0	0	226.803286798182	226.85326875624	0.0499819580581971	237285
237.385	50	436	0	0	coffee	377	127	1	stimuli\coffee\coffee_12s.jpg	11	-1	1	0	coffee_12s.jpg	0	0.0	0	226.90330825344398	226.95327290101002	0.0499646475655027	237385
237.485	50	437	0	0	bean	102	128	1	stimuli\bean\bean_03s.jpg	2	-1	1	0	bean_03s.jpg	0	0.0	0	227.003294843889	227.05330191436198	0.0500070704729296	237485
237.585	50	438	0	0	tab	1607	129	1	stimuli\tab\tab_03s.jpg	2	-1	1	0	tab_03s.jpg	0	0.0	0	227.10331581154597	227.15330362104598	0.0499878094997257	237585
237.685	50	439	0	0	underwear	1745	130	1	stimuli\underwear\underwear_07s.jpg	6	-1	1	0	underwear_07s.jpg	0	0.0	0	227.20329801342498	227.25328948005298	0.0499914666288532	237685
237.785	50	440	0	0	punch2	1255	131	1	stimuli\punch2\punch2_12s.jpg	11	-1	1	0	punch2_12s.jpg	0	0.0	0	227.30330727819802	227.353280702955	0.0499734247568995	237785
237.885	50	441	0	0	rack1	1268	132	1	stimuli\rack1\rack1_01b.jpg	0	-1	1	0	rack1_01b.jpg	0	0.0	0	227.403304840089	227.453284360061	0.049979519972112	237885
237.985	50	442	0	0	charcoal	307	133	1	stimuli\charcoal\charcoal_02s.jpg	1	-1	1	0	charcoal_02s.jpg	0	0.0	0	227.50330898485802	227.553279971529	0.0499709866708145	237985
238.085	50	443	0	0	crayfish	434	134	1	stimuli\crayfish\crayfish_02s.jpg	1	-1	1	0	crayfish_02s.jpg	0	0.0	0	227.603309716273	227.653288504865	0.0499787885928527	238085
238.185	50	444	0	0	hash	756	135	1	stimuli\hash\hash_12s.jpg	11	-1	1	0	hash_12s.jpg	0	0.0	0	227.70331459247998	227.753287041967	0.0499724494875409	238185
238.285	50	445	0	0	peeler	1138	136	1	stimuli\peeler\peeler_03s.jpg	2	-1	1	0	peeler_03s.jpg	0	0.0	0	227.803297525796	227.85329728201	0.0499997562146746	238285
238.385	50	446	0	0	pool_table	1222	137	1	stimuli\pool_table\pool_table_11s.jpg	10	-1	1	0	pool_table_11s.jpg	0	0.0	0	227.90332117531202	227.953300695342	0.0499795200303197	238385
238.485	50	447	0	0	copier	405	138	1	stimuli\copier\copier_07n.jpg	6	-1	1	0	copier_07n.jpg	0	0.0	0	228.00334677536702	228.053310935327	0.0499641599599272	238485
238.585	50	448	0	0	sausage	1365	139	1	stimuli\sausage\sausage_02s.jpg	1	-1	1	0	sausage_02s.jpg	0	0.0	0	228.103328245808	228.15331020392503	0.0499819581164047	238585
238.686	50	449	0	0	television	1641	140	1	stimuli\television\television_09s.jpg	8	-1	1	0	television_09s.jpg	0	0.0	0	228.20340675255298	228.25333556009	0.0499288075370714	238686
238.785	50	450	0	0	seesaw	1402	141	1	stimuli\seesaw\seesaw_08s.jpg	7	-1	1	0	seesaw_08s.jpg	0	0.0	0	228.30335092009	228.35332970868302	0.0499787885928527	238785
238.885	50	451	0	0	photo_booth	1163	142	1	stimuli\photo_booth\photo_booth_07s.jpg	6	-1	1	0	photo_booth_07s.jpg	0	0.0	0	228.40333946107398	228.45332751440603	0.0499880533316173	238885
238.985	50	452	0	0	mussel	1042	143	1	stimuli\mussel\mussel_04s.jpg	3	-1	1	0	mussel_04s.jpg	0	0.0	0	228.50333458487898	228.553314104851	0.049979519972112	238985
239.085	50	453	0	0	piecrust	1169	144	1	stimuli\piecrust\piecrust_11s.jpg	10	-1	1	0	piecrust_11s.jpg	0	0.0	0	228.603335560125	228.653316786746	0.049981226620730006	239085
239.185	50	454	0	0	pea	1128	145	1	stimuli\pea\pea_03s.jpg	2	-1	1	0	pea_03s.jpg	0	0.0	0	228.703358478204	228.75334043632003	0.0499819581164047	239185
239.285	50	455	0	0	silicone	1444	146	1	stimuli\silicone\silicone_12s.jpg	11	-1	1	0	silicone_12s.jpg	0	0.0	0	228.803368474415	228.85334409342602	0.0499756190110929	239285
239.385	50	456	0	0	door	506	147	1	stimuli\door\door_07s.jpg	6	-1	1	0	door_07s.jpg	0	0.0	0	228.90336823061799	228.953341167711	0.0499729370931163	239385
239.485	50	457	0	0	mascara	978	148	1	stimuli\mascara\mascara_10s.jpg	9	-1	1	0	mascara_10s.jpg	0	0.0	0	229.003356771544	229.05333336582402	0.0499765942804515	239485
239.585	50	458	0	0	cot	420	149	1	stimuli\cot\cot_02s.jpg	1	-1	1	0	cot_02s.jpg	0	0.0	0	229.103370424884	229.153352626774	0.0499822018900886	239585
239.685	50	459	0	0	potato	1231	150	1	stimuli\potato\potato_11s.jpg	10	-1	1	0	potato_11s.jpg	0	0.0	0	229.203377983009	229.253336779133	0.049958796123974004	239685
239.785	50	460	0	0	fishing_pole	603	151	1	stimuli\fishing_pole\fishing_pole_10s.jpg	9	-1	1	0	fishing_pole_10s.jpg	0	0.0	0	229.30336042871897	229.353335803899	0.0499753751792014	239785
239.885	50	461	0	0	ice	816	152	1	stimuli\ice\ice_04s.jpg	3	-1	1	0	ice_04s.jpg	0	0.0	0	229.403356771567	229.453361647727	0.0500048761605285	239885
239.985	50	462	0	0	seaweed	1400	153	1	stimuli\seaweed\seaweed_01b.jpg	0	-1	1	0	seaweed_01b.jpg	0	0.0	0	229.503365061071	229.55336579249698	0.0500007314258255	239985
240.085	50	463	0	0	mosquito	1020	154	1	stimuli\mosquito\mosquito_09s.jpg	8	-1	1	0	mosquito_09s.jpg	0	0.0	0	229.603363110626	229.653368718224	0.0500056075979955	240085
240.185	50	464	0	0	gasket	661	155	1	stimuli\gasket\gasket_06s.jpg	5	-1	1	0	gasket_06s.jpg	0	0.0	0	229.703366523958	229.753337022965	0.0499704990070313	240185
240.285	50	465	0	0	root	1331	156	1	stimuli\root\root_04s.jpg	3	-1	1	0	root_04s.jpg	0	0.0	0	229.80336189153599	229.85334214294602	0.0499802514095791	240285
240.385	50	466	0	0	tool	1676	157	1	stimuli\tool\tool_12s.jpg	11	-1	1	0	tool_12s.jpg	0	0.0	0	229.903360916302	229.95338115253298	0.050020236230921	240385
240.485	50	467	0	0	calf1	241	158	1	stimuli\calf1\calf1_11s.jpg	10	-1	1	0	calf1_11s.jpg	0	0.0	0	230.003381883958	230.053378958255	0.049997074296698	240485
240.585	50	468	0	0	loveseat	947	159	1	stimuli\loveseat\loveseat_03s.jpg	2	-1	1	0	loveseat_03s.jpg	0	0.0	0	230.10339700011502	230.153364329657	0.0499673295416869	240585
240.685	50	469	0	0	baseball_bat	79	160	1	stimuli\baseball_bat\baseball_bat_12s.jpg	11	-1	1	0	baseball_bat_12s.jpg	0	0.0	0	230.203402851592	230.25338968587997	0.0499868342885748	240685
240.785	50	470	0	0	wind_chimes	1817	161	1	stimuli\wind_chimes\wind_chimes_04s.jpg	3	-1	1	0	wind_chimes_04s.jpg	0	0.0	0	230.303408459178	230.35338602872798	0.0499775695498101	240785
240.885	50	471	0	0	milkshake	1002	162	1	stimuli\milkshake\milkshake_05s.jpg	4	-1	1	0	milkshake_05s.jpg	0	0.0	0	230.403408946819	230.453392123978	0.0499831771594472	240885
240.985	50	472	0	0	viewfinder	1763	163	1	stimuli\viewfinder\viewfinder_06s.jpg	5	-1	1	0	viewfinder_06s.jpg	0	0.0	0	230.50341236015097	230.553374082025	0.0499617218738422	240985
241.086	50	473	0	0	metal_detector	996	164	1	stimuli\metal_detector\metal_detector_08s.jpg	7	-1	1	1	metal_detector_08s.jpg	0	0.0	0	230.60339188011102	230.653369693435	0.049977813323494	241086
241.186	50	474	0	0	tile	1660	165	1	stimuli\tile\tile_07s.jpg	6	-1	1	0	tile_07s.jpg	0	0.0	0	230.703419674421	230.753383590607	0.0499639161862433	241186
241.285	50	475	0	0	chinaware	331	166	1	stimuli\chinaware\chinaware_11s.jpg	10	-1	1	0	chinaware_11s.jpg	0	0.0	0	230.803388710599	230.853364573442	0.0499758628429845	241285
241.385	50	476	0	0	pillow	1176	167	1	stimuli\pillow\pillow_05s.jpg	4	-1	1	0	pillow_05s.jpg	1	0.350155550579075	1	230.903387979197	230.953370668693	0.0499826894956641	241385
241.485	50	477	0	0	pill	1174	168	1	stimuli\pill\pill_12s.jpg	11	-1	1	0	pill_12s.jpg	0	0.0	0	231.00339163630298	231.05336896202098	0.0499773257179186	241485
241.585	50	478	0	0	footbath	631	169	1	stimuli\footbath\footbath_10s.jpg	9	-1	1	0	footbath_10s.jpg	0	0.0	0	231.103393830592	231.15337554487598	0.0499817142845131	241585
241.685	50	479	0	0	thread	1651	170	1	stimuli\thread\thread_11s.jpg	10	-1	1	0	thread_11s.jpg	0	0.0	0	231.20339773158798	231.25338285917005	0.0499851275817491	241685
241.785	50	480	0	0	tiara	1655	171	1	stimuli\tiara\tiara_02s.jpg	1	-1	1	0	tiara_02s.jpg	0	0.0	0	231.303402607737	231.353381396329	0.0499787885928527	241785
241.886	50	481	0	0	recorder	1297	172	1	stimuli\recorder\recorder_04s.jpg	3	-1	1	0	recorder_04s.jpg	0	0.0	0	231.403404558252	231.45338480966203	0.0499802514095791	241886
241.986	50	482	0	0	jump_rope	858	173	1	stimuli\jump_rope\jump_rope_07s.jpg	6	-1	1	0	jump_rope_07s.jpg	0	0.0	0	231.503407971584	231.553389198205	0.049981226620730006	241986
242.086	50	483	0	0	spacesuit	1502	174	1	stimuli\spacesuit\spacesuit_08s.jpg	7	-1	1	0	spacesuit_08s.jpg	0	0.0	0	231.603404802037	231.653386760154	0.0499819581164047	242086
242.186	50	484	0	0	casserole	282	175	1	stimuli\casserole\casserole_09s.jpg	8	-1	1	0	casserole_09s.jpg	0	0.0	0	231.703441129706	231.753406264936	0.0499651352292858	242186
242.286	50	485	0	0	cleaver	354	176	1	stimuli\cleaver\cleaver_07s.jpg	6	-1	1	0	cleaver_07s.jpg	0	0.0	0	231.803421624936	231.85340699634997	0.0499853714136407	242286
242.386	50	486	0	0	bowl	177	177	1	stimuli\bowl\bowl_06n.jpg	5	-1	1	0	bowl_06n.jpg	0	0.0	0	231.90343088971	231.953399925842	0.0499690361320972	242386
242.485	50	487	0	0	airbag	7	178	1	stimuli\airbag\airbag_08s.jpg	7	-1	1	0	airbag_08s.jpg	0	0.0	0	232.003413579194	232.05341455445202	0.0500009752577171	242485
242.586	50	488	0	0	spark_plug	1506	179	1	stimuli\spark_plug\spark_plug_07s.jpg	6	-1	1	0	spark_plug_07s.jpg	0	0.0	0	232.10343186493301	232.153411628737	0.0499797638040036	242586
242.686	50	489	0	0	kettle	868	180	1	stimuli\kettle\kettle_12s.jpg	11	-1	1	0	kettle_12s.jpg	0	0.0	0	232.203436009702	232.25340894679502	0.0499729370931163	242686
242.786	50	490	0	0	hose	800	181	1	stimuli\hose\hose_04s.jpg	3	-1	1	0	hose_04s.jpg	0	0.0	0	232.303436984948	232.35341748013198	0.049980495183263	242786
242.886	50	491	0	0	doorbell	507	182	1	stimuli\doorbell\doorbell_12s.jpg	11	-1	1	0	doorbell_12s.jpg	0	0.0	0	232.403442104929	232.45342674490502	0.0499846399761736	242886
242.986	50	492	0	0	owl	1091	183	1	stimuli\owl\owl_08s.jpg	7	-1	1	0	owl_08s.jpg	0	0.0	0	232.503444786824	232.55342674494	0.0499819581164047	242986
243.086	50	493	0	0	crowbar	447	184	1	stimuli\crowbar\crowbar_04s.jpg	3	-1	1	0	crowbar_04s.jpg	0	0.0	0	232.603446005902	232.653427232523	0.049981226620730006	243086
243.186	50	494	0	0	binoculars	127	185	1	stimuli\binoculars\binoculars_01s.jpg	0	-1	1	0	binoculars_01s.jpg	0	0.0	0	232.703452344926	232.753435765859	0.0499834209331311	243186
243.286	50	495	0	0	cauliflower	288	186	1	stimuli\cauliflower\cauliflower_02s.jpg	1	-1	1	0	cauliflower_02s.jpg	0	0.0	0	232.803447712562	232.85343064589	0.0499829333275557	243286
243.386	50	496	0	0	sidecar	1442	187	1	stimuli\sidecar\sidecar_03s.jpg	2	-1	1	0	sidecar_03s.jpg	0	0.0	0	232.903449906851	232.953444055398	0.0499941485468298	243386
243.486	50	497	0	0	bark	74	188	1	stimuli\bark\bark_10s.jpg	9	-1	1	0	bark_10s.jpg	0	0.0	0	233.00346087827302	233.053437960159	0.049977081886027	243486
243.586	50	498	0	0	camel	245	189	1	stimuli\camel\camel_07s.jpg	6	-1	1	0	camel_07s.jpg	0	0.0	0	233.10348574689098	233.153460878297	0.0499751314055175	243586
243.686	50	499	0	0	marijuana	974	190	1	stimuli\marijuana\marijuana_01b.jpg	0	-1	1	0	marijuana_01b.jpg	0	0.0	0	233.203509396408	233.253463072586	0.0499536761781201	243686
243.786	50	500	0	0	school_bus	1378	191	1	stimuli\school_bus\school_bus_01b.jpg	0	-1	1	0	school_bus_01b.jpg	0	0.0	0	233.30348355259	233.353466729692	0.0499831771012396	243786
243.886	50	501	0	0	whistle	1812	192	1	stimuli\whistle\whistle_10s.jpg	9	-1	1	0	whistle_10s.jpg	0	0.0	0	233.40349232970001	233.453471118293	0.0499787885928527	243886
243.986	50	502	0	0	turban	1730	193	1	stimuli\turban\turban_09s.jpg	8	-1	1	0	turban_09s.jpg	0	0.0	0	233.503480626852	233.553436741116	0.0499561142642051	243986
244.086	50	503	0	0	armor	37	194	1	stimuli\armor\armor_09s.jpg	8	-1	1	0	armor_09s.jpg	0	0.0	0	233.603457464953	233.65344186109698	0.0499843961442821	244086
244.186	50	504	0	0	racehorse	1267	195	1	stimuli\racehorse\racehorse_03s.jpg	2	-1	1	0	racehorse_03s.jpg	0	0.0	0	233.703463072539	233.75347575067997	0.0500126781407744	244186
244.286	50	505	0	0	fuse	652	196	1	stimuli\fuse\fuse_01s.jpg	0	-1	1	0	fuse_01s.jpg	0	0.0	0	233.803498424939	233.853460146871	0.0499617219320498	244286
244.386	50	506	0	0	tuxedo	1738	197	1	stimuli\tuxedo\tuxedo_07s.jpg	6	-1	1	0	tuxedo_07s.jpg	0	0.0	0	233.903483308794	233.953467217332	0.0499839085387066	244386
244.486	50	507	0	0	shopping_basket	1427	198	1	stimuli\shopping_basket\shopping_basket_01b.jpg	0	-1	1	0	shopping_basket_01b.jpg	0	0.0	0	234.00348696589901	234.053460634488	0.049973668588790994	244486
244.586	50	508	0	0	headband	762	199	1	stimuli\headband\headband_12s.jpg	11	-1	1	0	headband_12s.jpg	0	0.0	0	234.103473556403	234.153459903027	0.0499863466247916	244586
244.686	50	509	0	0	christmas_tree	341	200	1	stimuli\christmas_tree\christmas_tree_02s.jpg	1	-1	1	0	christmas_tree_02s.jpg	0	0.0	0	234.20347770117198	234.25349013542302	0.0500124342506751	244686
244.786	50	510	0	0	ketchup	867	201	1	stimuli\ketchup\ketchup_05s.jpg	4	-1	1	0	ketchup_05s.jpg	0	0.0	0	234.303490866849	234.353470630653	0.0499797638040036	244786
244.886	50	511	0	0	book	165	202	1	stimuli\book\book_11s.jpg	10	-1	1	0	book_11s.jpg	0	0.0	0	234.403491842095	234.45346672972698	0.0499748876318336	244886
244.986	50	512	0	0	wolf	1831	203	1	stimuli\wolf\wolf_10s.jpg	9	-1	1	0	wolf_10s.jpg	0	0.0	0	234.503501838306	234.55348184588402	0.0499800075776875	244986
245.086	50	513	0	0	lab_coat	885	204	1	stimuli\lab_coat\lab_coat_06s.jpg	5	-1	1	0	lab_coat_06s.jpg	0	0.0	0	234.603499887802	234.65347940783198	0.0499795200303197	245086
245.186	50	514	0	0	easter_egg	543	205	1	stimuli\easter_egg\easter_egg_07s.jpg	6	-1	1	0	easter_egg_07s.jpg	0	0.0	0	234.703508177365	234.75348013924702	0.0499719618819654	245186
245.286	50	515	0	0	hoodie	792	206	1	stimuli\hoodie\hoodie_06s.jpg	5	-1	1	1	hoodie_06s.jpg	0	0.0	0	234.80350427637995	234.853488184977	0.0499839085969143	245286
245.386	50	516	0	0	flipper	615	207	1	stimuli\flipper\flipper_03s.jpg	2	-1	1	0	flipper_03s.jpg	0	0.0	0	234.903506714501	234.953478676383	0.0499719618819654	245386
245.486	50	517	0	0	finger	588	208	1	stimuli\finger\finger_01b.jpg	0	-1	1	0	finger_01b.jpg	0	0.0	0	235.003492817341	235.05349354876702	0.0500007314258255	245486
245.586	50	518	0	0	lettuce	920	209	1	stimuli\lettuce\lettuce_05n.jpg	4	-1	1	0	lettuce_05n.jpg	1	0.303003247536253	1	235.103520124045	235.15349525544997	0.0499751314055175	245586
245.686	50	519	0	0	ticktacktoe	1657	210	1	stimuli\ticktacktoe\ticktacktoe_03s.jpg	2	-1	1	0	ticktacktoe_03s.jpg	0	0.0	0	235.20351914881002	235.253521830717	0.0500026819063351	245686
245.786	50	520	0	0	hammer	741	211	1	stimuli\hammer\hammer_02s.jpg	1	-1	1	0	hammer_02s.jpg	0	0.0	0	235.303539141198	235.353523781174	0.0499846399761736	245786
245.886	50	521	0	0	wreath	1839	212	1	stimuli\wreath\wreath_02s.jpg	1	-1	1	0	wreath_02s.jpg	0	0.0	0	235.40354548022202	235.453523781151	0.0499783009290695	245886
245.986	50	522	0	0	bongo	162	213	1	stimuli\bongo\bongo_09s.jpg	8	-1	1	0	bongo_09s.jpg	0	0.0	0	235.503526950721	235.553505983087	0.0499790323665366	245986
246.086	50	523	0	0	flyswatter	623	214	1	stimuli\flyswatter\flyswatter_12s.jpg	11	-1	1	0	flyswatter_12s.jpg	0	0.0	0	235.60352500021702	235.65350573923197	0.0499807390151545	246086
246.186	50	524	0	0	sunflower	1584	215	1	stimuli\sunflower\sunflower_02s.jpg	1	-1	1	0	sunflower_02s.jpg	0	0.0	0	235.70352963259202	235.75350695831003	0.0499773257179186	246186
246.286	50	525	0	0	dial	483	216	1	stimuli\dial\dial_05s.jpg	4	-1	1	0	dial_05s.jpg	0	0.0	0	235.80352865735802	235.85351061547402	0.0499819581164047	246286
246.386	50	526	0	0	cane	258	217	1	stimuli\cane\cane_03s.jpg	2	-1	1	0	cane_03s.jpg	0	0.0	0	235.903530120209	235.953515491623	0.0499853714136407	246386
246.486	50	527	0	0	bazooka	98	218	1	stimuli\bazooka\bazooka_10s.jpg	9	-1	1	0	bazooka_10s.jpg	0	0.0	0	236.00356279074902	236.053539141198	0.04997635044856	246486
246.586	50	528	0	0	trailer	1697	219	1	stimuli\trailer\trailer_07s.jpg	6	-1	1	0	trailer_07s.jpg	0	0.0	0	236.103559621202	236.15354206692402	0.0499824457219802	246586
246.686	50	529	0	0	toga	1669	220	1	stimuli\toga\toga_10s.jpg	9	-1	1	0	toga_10s.jpg	0	0.0	0	236.20356839837	236.253532314498	0.0499639161280356	246686
246.786	50	530	0	0	funnel	649	221	1	stimuli\funnel\funnel_01b.jpg	0	-1	1	0	funnel_01b.jpg	0	0.0	0	236.30354889354197	236.353528657346	0.0499797638040036	246786
246.886	50	531	0	0	robe	1317	222	1	stimuli\robe\robe_05s.jpg	4	-1	1	0	robe_05s.jpg	0	0.0	0	236.40355011262002	236.45353572786598	0.0499856152455322	246886
246.986	50	532	0	0	heater	772	223	1	stimuli\heater\heater_05s.jpg	4	-1	1	0	heater_05s.jpg	0	0.0	0	236.50355206307702	236.553535971674	0.0499839085969143	246986
247.086	50	533	0	0	granola	701	224	1	stimuli\granola\granola_01b.jpg	0	-1	1	0	granola_01b.jpg	0	0.0	0	236.603557183116	236.65354133548698	0.0499841523705982	247086
247.186	50	534	0	0	van	1752	225	1	stimuli\van\van_07s.jpg	6	-1	1	0	van_07s.jpg	0	0.0	0	236.70355791453	236.753541091632	0.0499831771012396	247186
247.286	50	535	0	0	souffle	1498	226	1	stimuli\souffle\souffle_08s.jpg	7	-1	1	1	souffle_08s.jpg	0	0.0	0	236.80355718307004	236.853535727831	0.0499785447609611	247286
247.386	50	536	0	0	ice_cube	819	227	1	stimuli\ice_cube\ice_cube_02s.jpg	1	-1	1	0	ice_cube_02s.jpg	0	0.0	0	236.903561815503	236.95356644788998	0.0500046323868446	247386
247.486	50	537	0	0	tree_trunk	1709	228	1	stimuli\tree_trunk\tree_trunk_07s.jpg	6	-1	1	0	tree_trunk_07s.jpg	0	0.0	0	237.003592779336	237.05354352976397	0.0499507504282519	247486
247.586	50	538	0	0	red_carpet	1298	229	1	stimuli\red_carpet\red_carpet_07s.jpg	6	-1	1	0	red_carpet_07s.jpg	1	0.341988170403056	1	237.103566691687	237.153531826916	0.0499651352292858	247586
247.686	50	539	0	0	squirrel	1529	230	1	stimuli\squirrel\squirrel_12n.jpg	11	-1	1	0	squirrel_12n.jpg	0	0.0	0	237.203589365992	237.25355693930803	0.0499675733153708	247686
247.786	50	540	0	0	tongs	1674	231	1	stimuli\tongs\tongs_10s.jpg	9	-1	1	0	tongs_10s.jpg	0	0.0	0	237.303572299308	237.35355474502998	0.0499824457219802	247786
247.886	50	541	0	0	keyboard	870	232	1	stimuli\keyboard\keyboard_06s.jpg	5	-1	1	0	keyboard_06s.jpg	0	0.0	0	237.403575956414	237.453547186917	0.04997123050270599	247886
247.986	50	542	0	0	metronome	997	233	1	stimuli\metronome\metronome_11s.jpg	10	-1	1	0	metronome_11s.jpg	0	0.0	0	237.50357961357798	237.553558645945	0.0499790323665366	247986
248.086	50	543	0	0	volleyball	1767	234	1	stimuli\volleyball\volleyball_06s.jpg	5	-1	1	0	volleyball_06s.jpg	0	0.0	0	237.603585708828	237.653558402148	0.0499726933194324	248086
248.186	50	544	0	0	hula_hoop	810	235	1	stimuli\hula_hoop\hula_hoop_08s.jpg	7	-1	1	0	hula_hoop_08s.jpg	0	0.0	0	237.703578882152	237.753547674511	0.0499687923584133	248186
248.286	50	545	0	0	iceskate	823	236	1	stimuli\iceskate\iceskate_11s.jpg	10	-1	1	0	iceskate_11s.jpg	0	0.0	0	237.803588878363	237.85356596024897	0.049977081886027	248286
248.386	50	546	0	0	mosquito_net	1021	237	1	stimuli\mosquito_net\mosquito_net_07s.jpg	6	-1	1	0	mosquito_net_07s.jpg	0	0.0	0	237.90358692786	237.95358790311698	0.0500009752577171	248386
248.486	50	547	0	0	enchilada	556	238	1	stimuli\enchilada\enchilada_10s.jpg	9	-1	1	0	enchilada_10s.jpg	0	0.0	0	238.00358302693297	238.053573518351	0.0499904914177023	248486
248.586	50	548	0	0	suspenders	1589	239	1	stimuli\suspenders\suspenders_08s.jpg	7	-1	1	0	suspenders_08s.jpg	0	0.0	0	238.103596192668	238.15357254311698	0.04997635044856	248586
248.686	50	549	0	0	spout	1520	240	1	stimuli\spout\spout_04s.jpg	3	-1	1	0	spout_04s.jpg	0	0.0	0	238.20358912216	238.25355840212399	0.0499692799639888	248686
248.786	50	550	0	0	honeypot	790	241	1	stimuli\honeypot\honeypot_05s.jpg	4	-1	1	0	honeypot_05s.jpg	0	0.0	0	238.30361789168097	238.353578882175	0.0499609904945828	248786
248.886	50	551	0	0	silverware	1445	242	1	stimuli\silverware\silverware_11s.jpg	10	-1	1	0	silverware_11s.jpg	0	0.0	0	238.40359936218	238.453586927906	0.0499875657260418	248886
248.986	50	552	0	0	frame	639	243	1	stimuli\frame\frame_05s.jpg	4	-1	1	0	frame_05s.jpg	0	0.0	0	238.503609602165	238.553588878363	0.0499792761984281	248986
249.086	50	553	0	0	squid	1528	244	1	stimuli\squid\squid_06s.jpg	5	-1	1	0	squid_06s.jpg	0	0.0	0	238.603609845974	238.65359156025798	0.0499817142845131	249086
249.186	50	554	0	0	trident	1712	245	1	stimuli\trident\trident_09s.jpg	8	-1	1	0	trident_09s.jpg	0	0.0	0	238.70361179648899	238.753596192633	0.0499843961442821	249186
249.286	50	555	0	0	sand	1351	246	1	stimuli\sand\sand_10s.jpg	9	-1	1	0	sand_10s.jpg	0	0.0	0	238.803617404075	238.853594729793	0.0499773257179186	249286
249.386	50	556	0	0	toothpaste	1680	247	1	stimuli\toothpaste\toothpaste_11s.jpg	10	-1	1	0	toothpaste_11s.jpg	0	0.0	0	238.90361764788398	238.95360058121202	0.0499829333275557	249386
249.486	50	557	0	0	sponge	1517	248	1	stimuli\sponge\sponge_08s.jpg	7	-1	1	0	sponge_08s.jpg	0	0.0	0	239.00363812793498	239.053605945024	0.0499678170890547	249486
249.586	50	558	0	0	knitting_needle	881	249	1	stimuli\knitting_needle\knitting_needle_02s.jpg	1	-1	1	0	knitting_needle_02s.jpg	0	0.0	0	239.103627400298	239.15362764411802	0.05000024382025	249586
249.686	50	559	0	0	apple	30	250	1	stimuli\apple\apple_07s.jpg	6	-1	1	0	apple_07s.jpg	0	0.0	0	239.20362106122798	239.25360326311798	0.0499822018900886	249686
249.786	50	560	0	0	anchor	21	251	1	stimuli\anchor\anchor_12s.jpg	11	-1	1	0	anchor_12s.jpg	0	0.0	0	239.303625937435	239.35360667645	0.0499807390151545	249786
249.886	50	561	0	0	peach	1129	252	1	stimuli\peach\peach_04s.jpg	3	-1	1	0	peach_04s.jpg	0	0.0	0	239.403628863161	239.453613259306	0.0499843961442821	249886
249.986	50	562	0	0	wig	1816	253	1	stimuli\wig\wig_03s.jpg	2	-1	1	0	wig_03s.jpg	0	0.0	0	239.50365519459598	239.553635202174	0.0499800075776875	249986
250.086	50	563	0	0	blueberry	149	254	1	stimuli\blueberry\blueberry_12n.jpg	11	-1	1	0	blueberry_12n.jpg	0	0.0	0	239.60366153362003	239.65362130501302	0.0499597713933326	250086
250.186	50	564	0	0	nail	1046	255	1	stimuli\nail\nail_09s.jpg	8	-1	1	0	nail_09s.jpg	0	0.0	0	239.703660558385	239.753620329779	0.0499597713933326	250186
250.286	50	565	0	0	lamb	889	256	1	stimuli\lamb\lamb_12s.jpg	11	-1	1	0	lamb_12s.jpg	0	0.0	0	239.803642028884	239.85362008598202	0.049978057097178	250286
250.386	50	566	0	0	cocktail	374	257	1	stimuli\cocktail\cocktail_02s.jpg	1	-1	1	0	cocktail_02s.jpg	0	0.0	0	239.903639590775	239.95361472218102	0.0499751314055175	250386
250.486	50	567	0	0	baton3	94	258	1	stimuli\baton3\baton3_01s.jpg	0	-1	1	0	baton3_01s.jpg	0	0.0	0	240.00363178883	240.05361057742297	0.0499787885928527	250486
250.586	50	568	0	0	iguana	825	259	1	stimuli\iguana\iguana_01b.jpg	0	-1	1	0	iguana_01b.jpg	0	0.0	0	240.103637152642	240.15361569740298	0.0499785447609611	250586
250.686	50	569	0	0	costume	419	260	1	stimuli\costume\costume_01b.jpg	0	-1	1	0	costume_01b.jpg	0	0.0	0	240.203635689802	240.25361423456297	0.0499785447609611	250686
250.786	50	570	0	0	can_opener	251	261	1	stimuli\can_opener\can_opener_10s.jpg	9	-1	1	0	can_opener_10s.jpg	0	0.0	0	240.303671529808	240.35363788407997	0.0499663542723283	250786
250.886	50	571	0	0	beet	114	262	1	stimuli\beet\beet_02s.jpg	1	-1	1	0	beet_02s.jpg	0	0.0	0	240.40366787271302	240.453635202197	0.0499673294834793	250886
250.986	50	572	0	0	guacamole	719	263	1	stimuli\guacamole\guacamole_07s.jpg	6	-1	1	0	guacamole_07s.jpg	0	0.0	0	240.503661533643	240.55363983457198	0.0499783009290695	250986
251.086	50	573	0	0	cigarette	344	264	1	stimuli\cigarette\cigarette_06s.jpg	5	-1	1	0	cigarette_06s.jpg	0	0.0	0	240.603657388885	240.653656413662	0.0499990247772075	251086
251.186	50	574	0	0	mold2	1013	265	1	stimuli\mold2\mold2_06s.jpg	5	-1	1	0	mold2_06s.jpg	0	0.0	0	240.70367079839298	240.75364983076	0.0499790323665366	251186
251.286	50	575	0	0	grapefruit	703	266	1	stimuli\grapefruit\grapefruit_12s.jpg	11	-1	1	0	grapefruit_12s.jpg	0	0.0	0	240.803663484112	240.85364690504503	0.0499834209331311	251286
251.386	50	576	0	0	ostrich	1084	267	1	stimuli\ostrich\ostrich_05s.jpg	4	-1	1	0	ostrich_05s.jpg	0	0.0	0	240.903687133628	240.95366250886602	0.049975375237409005	251386
251.486	50	577	0	0	sewing_machine	1407	268	1	stimuli\sewing_machine\sewing_machine_04s.jpg	3	-1	1	0	sewing_machine_04s.jpg	0	0.0	0	241.003675187007	241.053654706979	0.049979519972112	251486
251.586	50	578	0	0	gift	672	269	1	stimuli\gift\gift_01b.jpg	0	-1	1	0	gift_01b.jpg	0	0.0	0	241.103673724108	241.15365616983	0.0499824457219802	251586
251.686	50	579	0	0	typewriter	1741	270	1	stimuli\typewriter\typewriter_01b.jpg	0	-1	1	0	typewriter_01b.jpg	0	0.0	0	241.203687377449	241.253678844136	0.0499914666870609	251686
251.786	50	580	0	0	tooth	1678	271	1	stimuli\tooth\tooth_01b.jpg	0	-1	1	0	tooth_01b.jpg	0	0.0	0	241.30368103843603	241.353658364096	0.0499773256597109	251786
251.886	50	581	0	0	slipper	1468	272	1	stimuli\slipper\slipper_10s.jpg	9	-1	1	0	slipper_10s.jpg	0	0.0	0	241.40370054316003	241.45369322889	0.0499926857301034	251886
251.986	50	582	0	0	gearshift	668	273	1	stimuli\gearshift\gearshift_07n.jpg	6	-1	1	0	gearshift_07n.jpg	0	0.0	0	241.50370712607398	241.55368981557004	0.0499826894956641	251986
252.086	50	583	0	0	tugboat	1725	274	1	stimuli\tugboat\tugboat_05s.jpg	4	-1	1	0	tugboat_05s.jpg	0	0.0	0	241.603680063155	241.653668360319	0.0499882971635088	252086
252.186	50	584	0	0	marble	972	275	1	stimuli\marble\marble_02s.jpg	1	-1	1	0	marble_02s.jpg	0	0.0	0	241.703692253679	241.753693960316	0.0500017066369765	252186
252.286	50	585	0	0	kimono	873	276	1	stimuli\kimono\kimono_12s.jpg	11	-1	1	0	kimono_12s.jpg	0	0.0	0	241.803713708883	241.85369469172997	0.0499809828470461	252286
252.386	50	586	0	0	bow2	175	277	1	stimuli\bow2\bow2_08s.jpg	7	-1	1	0	bow2_08s.jpg	0	0.0	0	241.90373053174702	241.95370005554298	0.0499695237958804	252386
252.486	50	587	0	0	caterpillar	286	278	1	stimuli\caterpillar\caterpillar_01b.jpg	0	-1	1	0	caterpillar_01b.jpg	0	0.0	0	242.00371931650398	242.05368103843603	0.0499617219320498	252486
252.586	50	588	0	0	celery	291	279	1	stimuli\celery\celery_07s.jpg	6	-1	1	0	celery_07s.jpg	0	0.0	0	242.103701274609	242.15365543839297	0.0499541637836955	252586
252.686	50	589	0	0	quad	1260	280	1	stimuli\quad\quad_11s.jpg	10	-1	1	0	quad_11s.jpg	0	0.0	0	242.20371395273798	242.253688352706	0.0499743999680504	252686
252.786	50	590	0	0	bow1	174	281	1	stimuli\bow1\bow1_03s.jpg	2	-1	1	0	bow1_03s.jpg	0	0.0	0	242.303727118415	242.353708832699	0.0499817142845131	252786
252.886	50	591	0	0	soap	1487	282	1	stimuli\soap\soap_02s.jpg	1	-1	1	0	soap_02s.jpg	0	0.0	0	242.40373467653998	242.453692253679	0.0499575771391392	252886
252.986	50	592	0	0	bok_choy	156	283	1	stimuli\bok_choy\bok_choy_11s.jpg	10	-1	1	0	bok_choy_11s.jpg	0	0.0	0	242.50371248985198	242.55369152221803	0.0499790323665366	252986
253.086	50	593	0	0	crystal1	453	284	1	stimuli\crystal1\crystal1_03s.jpg	2	-1	1	0	crystal1_03s.jpg	0	0.0	0	242.603737114638	242.65371736604698	0.0499802514095791	253086
253.186	50	594	0	0	croissant	442	285	1	stimuli\croissant\croissant_02s.jpg	1	-1	1	1	croissant_02s.jpg	0	0.0	0	242.703740771802	242.753708588891	0.0499678170890547	253186
253.286	50	595	0	0	pipe2	1187	286	1	stimuli\pipe2\pipe2_03s.jpg	2	-1	1	0	pipe2_03s.jpg	0	0.0	0	242.80372443655497	242.853704200359	0.0499797638040036	253286
253.386	50	596	0	0	breathalyzer	198	287	1	stimuli\breathalyzer\breathalyzer_05s.jpg	4	-1	1	0	breathalyzer_05s.jpg	0	0.0	0	242.903728581325	242.953734188923	0.0500056075979955	253386
253.486	50	597	0	0	amplifier	20	288	1	stimuli\amplifier\amplifier_06s.jpg	5	-1	1	0	amplifier_06s.jpg	1	0.359769453527406	1	243.00373296986803	243.053715171758	0.0499822018900886	253486
253.586	50	598	0	0	lantern	895	289	1	stimuli\lantern\lantern_11s.jpg	10	-1	1	0	lantern_11s.jpg	0	0.0	0	243.10372980032102	243.153733457497	0.0500036571756937	253586
253.686	50	599	0	0	screw	1390	290	1	stimuli\screw\screw_12s.jpg	11	-1	1	0	screw_12s.jpg	0	0.0	0	243.20374150323897	243.25371248985198	0.0499709866126068	253686
253.786	50	600	0	0	ginger	673	291	1	stimuli\ginger\ginger_02s.jpg	1	-1	1	0	ginger_02s.jpg	0	0.0	0	243.303732969856	243.353714196535	0.0499812266789377	253786
253.886	50	601	0	0	peacock	1130	292	1	stimuli\peacock\peacock_01b.jpg	0	-1	1	0	peacock_01b.jpg	0	0.0	0	243.40376247081403	243.453722242266	0.0499597714515403	253886
253.986	50	602	0	0	cruise_ship	450	293	1	stimuli\cruise_ship\cruise_ship_01b.jpg	0	-1	1	0	cruise_ship_01b.jpg	0	0.0	0	243.50373687082902	243.553720291762	0.0499834209331311	253986
254.086	50	603	0	0	bottle	170	294	1	stimuli\bottle\bottle_02n.jpg	1	-1	1	0	bottle_02n.jpg	0	0.0	0	243.603742234642	243.653723948926	0.0499817142845131	254086
254.186	50	604	0	0	goose	693	295	1	stimuli\goose\goose_06s.jpg	5	-1	1	0	goose_06s.jpg	0	0.0	0	243.703737114614	243.753704931762	0.0499678171472624	254186
254.286	50	605	0	0	muff	1034	296	1	stimuli\muff\muff_01b.jpg	0	-1	1	0	muff_01b.jpg	0	0.0	0	243.803771247971	243.85373126319598	0.0499600152252242	254286
254.386	50	606	0	0	scalpel	1374	297	1	stimuli\scalpel\scalpel_09s.jpg	8	-1	1	0	scalpel_09s.jpg	0	0.0	0	243.903754181287	243.953732238442	0.0499780571553856	254386
