onset	duration	eventnumber	blocksequencenumber	isteststim	object	objectnumber	presentationnumber	sequencenumber	stim	stimnumber	teststimnumber	withinsequencenumber	istarget	stimname	response	rt	correct	time_stimon	time_stimoff	stimdur	sample
96.956	50	0	0	0	coyote	427	0	0	stimuli\coyote\coyote_05s.jpg	4	-1	0	0	coyote_05s.jpg	0	0.0	0	118.20164537113999	118.25162139251199	0.049976021371549	96956
97.056	50	1	0	0	anklet	23	1	0	stimuli\anklet\anklet_02s.jpg	1	-1	0	0	anklet_02s.jpg	0	0.0	0	118.301641543338	118.35162097803499	0.0499794346978888	97056
97.156	50	2	0	0	nutcracker	1067	2	0	stimuli\nutcracker\nutcracker_10s.jpg	9	-1	0	0	nutcracker_10s.jpg	0	0.0	0	118.40164698028799	118.451616418795	0.0499694385071052	97156
97.256	50	3	0	0	sparkler	1507	3	0	stimuli\sparkler\sparkler_03s.jpg	2	-1	0	0	sparkler_03s.jpg	0	0.0	0	118.50165461152201	118.55162795097601	0.0499733394535724	97256
97.356	50	4	0	0	bark	74	4	0	stimuli\bark\bark_04s.jpg	3	-1	0	0	bark_04s.jpg	0	0.0	0	118.60164980847901	118.65163094982599	0.0499811413465068	97356
97.456	50	5	0	0	chicken2	323	5	0	stimuli\chicken2\chicken2_03s.jpg	2	-1	0	0	chicken2_03s.jpg	0	0.0	0	118.701651588286	118.75204598633002	0.0503943980438635	97456
97.556	50	6	0	0	dish	489	6	0	stimuli\dish\dish_05s.jpg	4	-1	0	0	dish_05s.jpg	0	0.0	0	118.801652880473	118.851633778017	0.049980897543719004	97556
97.656	50	7	0	0	aquarium	34	7	0	stimuli\aquarium\aquarium_09s.jpg	8	-1	0	0	aquarium_09s.jpg	0	0.0	0	118.901658561226	118.951623611167	0.0499650499405107	97656
97.756	50	8	0	0	beehive	112	8	0	stimuli\beehive\beehive_07s.jpg	6	-1	0	0	beehive_07s.jpg	0	0.0	0	119.001657902947	119.051628804315	0.0499709013674874	97756
97.856	50	9	0	0	wedge	1801	9	0	stimuli\wedge\wedge_06s.jpg	5	-1	0	0	wedge_06s.jpg	0	0.0	0	119.101660901797	119.15164374982099	0.0499828480242286	97856
97.956	50	10	0	0	thermostat	1648	10	0	stimuli\thermostat\thermostat_11s.jpg	10	-1	0	0	thermostat_11s.jpg	0	0.0	0	119.201668045411	119.251643822965	0.0499757775542093	97956
98.056	50	11	0	0	seagull	1395	11	0	stimuli\seagull\seagull_04s.jpg	3	-1	0	0	seagull_04s.jpg	0	0.0	0	119.30166884997699	119.351646821815	0.0499779718375066	98056
98.156	50	12	0	0	chalice	301	12	0	stimuli\chalice\chalice_03s.jpg	2	-1	0	0	chalice_03s.jpg	0	0.0	0	119.40167453073099	119.451633485442	0.0499589547107462	98156
98.256	50	13	0	0	veil	1755	13	0	stimuli\veil\veil_11s.jpg	10	-1	0	0	veil_11s.jpg	0	0.0	0	119.50167557911502	119.551634777628	0.0499591985135339	98256
98.356	50	14	0	0	shirt	1422	14	0	stimuli\shirt\shirt_06s.jpg	5	-1	0	0	shirt_06s.jpg	0	0.0	0	119.601672482735	119.651659231706	0.0499867489706958	98356
98.456	50	15	0	0	hard_disk	752	15	0	stimuli\hard_disk\hard_disk_02s.jpg	1	-1	0	0	hard_disk_02s.jpg	0	0.0	0	119.701682064435	119.751664668656	0.0499826042214409	98456
98.556	50	16	0	0	dishrag	490	16	0	stimuli\dishrag\dishrag_02s.jpg	1	-1	0	0	dishrag_02s.jpg	0	0.0	0	119.801679211872	119.851659865613	0.0499806537409313	98556
98.656	50	17	0	0	calamari	239	17	0	stimuli\calamari\calamari_01b.jpg	0	-1	0	0	calamari_01b.jpg	0	0.0	0	119.90169025643299	119.951664571126	0.0499743146938272	98656
98.756	50	18	0	0	gong	692	18	0	stimuli\gong\gong_12s.jpg	11	-1	0	0	gong_12s.jpg	0	0.0	0	120.00168545338998	120.051670495697	0.0499850423075259	98756
98.856	50	19	0	0	maggot	955	19	0	stimuli\maggot\maggot_08s.jpg	7	-1	0	0	maggot_08s.jpg	0	0.0	0	120.101685770336	120.15166861836	0.0499828480242286	98856
98.956	50	20	0	0	skeleton	1450	20	0	stimuli\skeleton\skeleton_05s.jpg	4	-1	0	0	skeleton_05s.jpg	0	0.0	0	120.20169218252701	120.251671861028	0.0499796785006765	98956
99.056	50	21	0	0	gurney	728	21	0	stimuli\gurney\gurney_06s.jpg	5	-1	0	0	gurney_06s.jpg	0	0.0	0	120.301692743291	120.351670471311	0.049977728020167	99056
99.156	50	22	0	0	feather	574	22	0	stimuli\feather\feather_06s.jpg	5	-1	0	0	feather_06s.jpg	0	0.0	0	120.401699399285	120.45167468920401	0.04997528991952999	99156
99.256	50	23	0	0	hot_chocolate	803	23	0	stimuli\hot_chocolate\hot_chocolate_07s.jpg	6	-1	0	0	hot_chocolate_07s.jpg	0	0.0	0	120.50170849336399	120.551659889985	0.0499513966205996	99256
99.356	50	24	0	0	earplug	539	24	0	stimuli\earplug\earplug_03s.jpg	2	-1	0	0	earplug_03s.jpg	0	0.0	0	120.60170393412399	120.65167190978501	0.049967975661275005	99356
99.456	50	25	0	0	grass	705	25	0	stimuli\grass\grass_09s.jpg	8	-1	0	0	grass_09s.jpg	0	0.0	0	120.701705226325	120.751666131502	0.0499609051767038	99456
99.556	50	26	0	0	cymbal	468	26	0	stimuli\cymbal\cymbal_07s.jpg	6	-1	0	0	cymbal_07s.jpg	0	0.0	0	120.80170578707501	120.851674494159	0.0499687070841901	99556
99.656	50	27	0	0	velcro	1756	27	0	stimuli\velcro\velcro_09s.jpg	8	-1	0	0	velcro_09s.jpg	0	0.0	0	120.901708054502	120.951688952046	0.049980897543719004	99656
99.756	50	28	0	0	couch	422	28	0	stimuli\couch\couch_05s.jpg	4	-1	0	0	couch_05s.jpg	0	0.0	0	121.001695937186	121.05169073185199	0.0499947946664179	99756
99.856	50	29	0	0	water_heater	1791	29	0	stimuli\water_heater\water_heater_09s.jpg	8	-1	0	0	water_heater_09s.jpg	0	0.0	0	121.10170259318001	121.15169446213999	0.0499918689602055	99856
99.956	50	30	0	0	gun	727	30	0	stimuli\gun\gun_12s.jpg	11	-1	0	0	gun_12s.jpg	0	0.0	0	121.20170071584299	121.25167917530099	0.049978459457633996	99956
100.056	50	31	0	0	teacup	1633	31	0	stimuli\teacup\teacup_11s.jpg	10	-1	0	0	teacup_11s.jpg	0	0.0	0	121.301720293734	121.35168144272801	0.0499611489940435	100056
100.156	50	32	0	0	french_fries	641	32	0	stimuli\french_fries\french_fries_04s.jpg	3	-1	0	0	french_fries_04s.jpg	0	0.0	0	121.401723048781	121.451702239661	0.0499791908805491	100156
100.256	50	33	0	0	cucumber	457	33	0	stimuli\cucumber\cucumber_07s.jpg	6	-1	0	0	cucumber_07s.jpg	0	0.0	0	121.501726047631	121.551686709005	0.0499606613739161	100256
100.356	50	34	0	0	folder	625	34	0	stimuli\folder\folder_10s.jpg	9	-1	0	0	folder_10s.jpg	0	0.0	0	121.60172563315399	121.65170848117901	0.0499828480242286	100356
100.456	50	35	0	0	soccer_ball	1488	35	0	stimuli\soccer_ball\soccer_ball_01b.jpg	0	-1	0	0	soccer_ball_01b.jpg	0	0.0	0	121.701732532951	121.751708554322	0.049976021371549	100456
100.556	50	36	0	0	nail_clippers	1047	36	0	stimuli\nail_clippers\nail_clippers_06s.jpg	5	-1	0	0	nail_clippers_06s.jpg	0	0.0	0	121.801729924191	121.851696436992	0.0499665128008928	100556
100.656	50	37	0	0	kaleidoscope	861	37	0	stimuli\kaleidoscope\kaleidoscope_12s.jpg	11	-1	0	0	kaleidoscope_12s.jpg	0	0.0	0	121.90174096875099	121.951713576782	0.0499726080306573	100656
100.756	50	38	0	0	dart	473	38	0	stimuli\dart\dart_05s.jpg	4	-1	0	0	dart_05s.jpg	0	0.0	0	122.001718123822	122.051724377539	0.0500062537175836	100756
100.856	50	39	0	0	pineapple	1182	39	0	stimuli\pineapple\pineapple_08s.jpg	7	-1	0	0	pineapple_08s.jpg	0	0.0	0	122.10174160265899	122.151704214513	0.0499626118544256	100856
100.956	50	40	0	0	lingerie	932	40	0	stimuli\lingerie\lingerie_06s.jpg	5	-1	0	0	lingerie_06s.jpg	0	0.0	0	122.201741188182	122.25172062288	0.0499794346978888	100956
101.056	50	41	0	0	trumpet	1721	41	0	stimuli\trumpet\trumpet_01s.jpg	0	-1	0	0	trumpet_01s.jpg	0	0.0	0	122.30174369942699	122.3517282541	0.0499845546728466	101056
101.156	50	42	0	0	jumpsuit	859	42	0	stimuli\jumpsuit\jumpsuit_01b.jpg	0	-1	0	0	jumpsuit_01b.jpg	0	0.0	0	122.4017474297	122.451723207254	0.0499757775542093	101156
101.256	50	43	0	0	milkshake	1002	43	0	stimuli\milkshake\milkshake_02s.jpg	1	-1	0	0	milkshake_02s.jpg	0	0.0	0	122.50173116762	122.55172888800699	0.0499977203871822	101256
101.356	50	44	0	0	bone	161	44	0	stimuli\bone\bone_11s.jpg	10	-1	0	0	bone_11s.jpg	0	0.0	0	122.601728315058	122.651734081141	0.0500057660829043	101356
101.456	50	45	0	0	loincloth	944	45	0	stimuli\loincloth\loincloth_12s.jpg	11	-1	0	0	loincloth_12s.jpg	0	0.0	0	122.701754475784	122.751716843835	0.0499623680516379	101456
101.556	50	46	0	0	pesto	1156	46	0	stimuli\pesto\pesto_07s.jpg	6	-1	0	0	pesto_07s.jpg	0	0.0	0	122.801757474648	122.851700825559	0.0499433509103255	101556
101.656	50	47	0	0	tee	1636	47	0	stimuli\tee\tee_06s.jpg	5	-1	0	0	tee_06s.jpg	0	0.0	0	122.901763155402	122.951742346282	0.0499791908805491	101656
101.756	50	48	0	0	hairpin	737	48	0	stimuli\hairpin\hairpin_01b.jpg	0	-1	0	0	hairpin_01b.jpg	0	0.0	0	123.001760546642	123.05174388227199	0.0499833356298041	101756
101.856	50	49	0	0	laser_pointer	899	49	0	stimuli\laser_pointer\laser_pointer_05s.jpg	4	-1	0	0	laser_pointer_05s.jpg	0	0.0	0	123.101765739775	123.15174541827601	0.0499796785006765	101856
101.956	50	50	0	0	pickax	1166	50	0	stimuli\pickax\pickax_03s.jpg	2	-1	0	0	pickax_03s.jpg	0	0.0	0	123.201767519582	123.25174695428001	0.0499794346978888	101956
102.056	50	51	0	0	fruit	645	51	0	stimuli\fruit\fruit_08s.jpg	7	-1	0	0	fruit_08s.jpg	0	0.0	0	123.301752232743	123.35172045220699	0.0499682194640627	102056
102.156	50	52	0	0	ship	1421	52	0	stimuli\ship\ship_05s.jpg	4	-1	0	0	ship_05s.jpg	0	0.0	0	123.401774492522	123.45175490246	0.0499804099381436	102156
102.256	50	53	0	0	rocking_horse	1322	53	0	stimuli\rocking_horse\rocking_horse_01s.jpg	0	-1	0	0	rocking_horse_01s.jpg	0	0.0	0	123.501757255217	123.55173790894301	0.0499806537263794	102256
102.356	50	54	0	0	licorice	922	54	0	stimuli\licorice\licorice_09s.jpg	8	-1	0	0	licorice_09s.jpg	0	0.0	0	123.60177463881	123.65174261447099	0.049967975661275005	102356
102.456	50	55	0	0	ink	829	55	0	stimuli\ink\ink_04s.jpg	3	-1	0	0	ink_04s.jpg	0	0.0	0	123.701776174814	123.751760729501	0.0499845546873985	102456
102.556	50	56	0	0	swan	1591	56	0	stimuli\swan\swan_05s.jpg	4	-1	0	1	swan_05s.jpg	0	0.0	0	123.801783806048	123.851762021688	0.0499782156402944	102556
102.656	50	57	0	0	vulture	1768	57	0	stimuli\vulture\vulture_06s.jpg	5	-1	0	0	vulture_06s.jpg	0	0.0	0	123.90178899918101	123.951771359585	0.0499823604041012	102656
102.756	50	58	0	0	tie	1658	58	0	stimuli\tie\tie_08s.jpg	7	-1	0	0	tie_08s.jpg	0	0.0	0	124.00177005519801	124.051755828928	0.049985773730441	102756
102.856	50	59	0	0	bison	134	59	0	stimuli\bison\bison_08s.jpg	7	-1	0	0	bison_08s.jpg	1	0.35015397773531703	1	124.10179767878401	124.151773456339	0.0499757775542093	102856
102.956	50	60	0	0	mint	1004	60	0	stimuli\mint\mint_02s.jpg	1	-1	0	0	mint_02s.jpg	0	0.0	0	124.201792144318	124.251770847579	0.0499787032604218	102956
103.056	50	61	0	0	trophy	1717	61	0	stimuli\trophy\trophy_02s.jpg	1	-1	0	0	trophy_02s.jpg	0	0.0	0	124.301796849832	124.35176263121001	0.0499657813779777	103056
103.156	50	62	0	0	arrow	38	62	0	stimuli\arrow\arrow_10s.jpg	9	-1	0	0	arrow_10s.jpg	0	0.0	0	124.401800580119	124.45178172148	0.0499811413610587	103156
103.256	50	63	0	0	cookie	400	63	0	stimuli\cookie\cookie_12s.jpg	11	-1	0	0	cookie_12s.jpg	0	0.0	0	124.501801628503	124.551779600326	0.0499779718229547	103256
103.356	50	64	0	0	catfish	287	64	0	stimuli\catfish\catfish_09s.jpg	8	-1	0	0	catfish_09s.jpg	0	0.0	0	124.601786829284	124.651781380147	0.0499945508636301	103356
103.456	50	65	0	0	pacifier	1093	65	0	stimuli\pacifier\pacifier_05s.jpg	4	-1	0	0	pacifier_05s.jpg	0	0.0	0	124.70180421287701	124.75178511042	0.049980897543719004	103456
103.556	50	66	0	0	clay	352	66	0	stimuli\clay\clay_01b.jpg	0	-1	0	0	clay_01b.jpg	0	0.0	0	124.801807455544	124.851790059751	0.0499826042068889	103556
103.656	50	67	0	0	puppet	1257	67	0	stimuli\puppet\puppet_10s.jpg	9	-1	0	0	puppet_10s.jpg	0	0.0	0	124.901813136297	124.95179257098101	0.0499794346833369	103656
103.756	50	68	0	0	tab	1607	68	0	stimuli\tab\tab_10s.jpg	9	-1	0	0	tab_10s.jpg	0	0.0	0	125.00181199039801	125.051789230798	0.0499772404000396	103756
103.856	50	69	0	0	sheep	1414	69	0	stimuli\sheep\sheep_04n.jpg	3	-1	0	0	sheep_04n.jpg	0	0.0	0	125.101816452108	125.15179759345502	0.0499811413465068	103856
103.956	50	70	0	0	tuning_fork	1728	70	0	stimuli\tuning_fork\tuning_fork_04s.jpg	3	-1	0	0	tuning_fork_04s.jpg	0	0.0	0	125.201818231915	125.251798154219	0.0499799223034643	103956
104.056	50	71	0	0	slug	1472	71	0	stimuli\slug\slug_09s.jpg	8	-1	0	0	slug_09s.jpg	0	0.0	0	125.301802213638	125.351790913075	0.0499886994366534	104056
104.156	50	72	0	0	arch	35	72	0	stimuli\arch\arch_02s.jpg	1	-1	0	0	arch_02s.jpg	0	0.0	0	125.401819109626	125.451803420496	0.0499843108700588	104156
104.256	50	73	0	0	film	586	73	0	stimuli\film\film_03s.jpg	2	-1	0	0	film_03s.jpg	0	0.0	0	125.50182162085501	125.551803006019	0.0499813851638464	104256
104.356	50	74	0	0	otter	1085	74	0	stimuli\otter\otter_08n.jpg	7	-1	0	0	otter_08n.jpg	0	0.0	0	125.60182973971001	125.65180990583	0.0499801661208039	104356
104.456	50	75	0	0	mold2	1013	75	0	stimuli\mold2\mold2_07s.jpg	6	-1	0	0	mold2_07s.jpg	0	0.0	0	125.70182859379601	125.7518109542	0.0499823604041012	104456
104.556	50	76	0	0	checkbook	310	76	0	stimuli\checkbook\checkbook_02s.jpg	1	-1	0	0	checkbook_02s.jpg	0	0.0	0	125.80183208028	125.851812734007	0.0499806537263794	104556
104.656	50	77	0	0	van	1752	77	0	stimuli\van\van_09s.jpg	8	-1	0	0	van_09s.jpg	0	0.0	0	125.90183556675	125.95181353858801	0.0499779718375066	104656
104.756	50	78	0	0	brownie	204	78	0	stimuli\brownie\brownie_03s.jpg	2	-1	0	0	brownie_03s.jpg	0	0.0	0	126.001821011334	126.05180093363701	0.0499799223034643	104756
104.856	50	79	0	0	cake_mix	238	79	0	stimuli\cake_mix\cake_mix_09s.jpg	8	-1	0	0	cake_mix_09s.jpg	0	0.0	0	126.10184278350799	126.15182294961399	0.049980166106252	104856
104.956	50	80	0	0	hubcap	809	80	0	stimuli\hubcap\hubcap_06s.jpg	5	-1	0	0	hubcap_06s.jpg	0	0.0	0	126.201841881411	126.251831068468	0.0499891870567808	104956
105.056	50	81	0	0	battery	97	81	0	stimuli\battery\battery_10s.jpg	9	-1	0	0	battery_10s.jpg	0	0.0	0	126.301847318347	126.351826753045	0.0499794346978888	105056
105.156	50	82	0	0	boa	150	82	0	stimuli\boa\boa_12s.jpg	11	-1	0	0	boa_12s.jpg	0	0.0	0	126.401846903871	126.451809759543	0.0499628556717653	105156
105.256	50	83	0	0	mail	959	83	0	stimuli\mail\mail_01b.jpg	0	-1	0	0	mail_01b.jpg	0	0.0	0	126.50184746463499	126.55182007266599	0.0499726080306573	105256
105.356	50	84	0	0	snowshoe	1485	84	0	stimuli\snowshoe\snowshoe_12s.jpg	11	-1	0	0	snowshoe_12s.jpg	0	0.0	0	126.60185241396499	126.651835018172	0.0499826042068889	105356
105.456	50	85	0	0	whistle	1812	85	0	stimuli\whistle\whistle_06s.jpg	5	-1	0	0	whistle_06s.jpg	0	0.0	0	126.701861751862	126.75181899991001	0.0499572480475763	105456
105.556	50	86	0	0	pedal	1136	86	0	stimuli\pedal\pedal_07s.jpg	6	-1	0	0	pedal_07s.jpg	0	0.0	0	126.80185694881901	126.85182541208599	0.0499684632668504	105556
105.656	50	87	0	0	flag	605	87	0	stimuli\flag\flag_11s.jpg	10	-1	0	0	flag_11s.jpg	0	0.0	0	126.901867018139	126.95183913855	0.0499721204105299	105656
105.756	50	88	0	0	icepick	822	88	0	stimuli\icepick\icepick_04s.jpg	3	-1	0	0	icepick_04s.jpg	0	0.0	0	127.00186172747601	127.05182507075399	0.0499633432773408	105756
105.856	50	89	0	0	mousepad	1028	89	0	stimuli\mousepad\mousepad_12s.jpg	11	-1	0	0	mousepad_12s.jpg	0	0.0	0	127.101863507283	127.15184708673	0.0499835794471437	105856
105.956	50	90	0	0	dashboard	475	90	0	stimuli\dashboard\dashboard_11s.jpg	10	-1	0	0	dashboard_11s.jpg	0	0.0	0	127.201865530908	127.251830093228	0.0499645623203833	105956
106.056	50	91	0	0	coal	367	91	0	stimuli\coal\coal_11s.jpg	10	-1	0	0	coal_11s.jpg	0	0.0	0	127.30186999261801	127.351854547305	0.0499845546873985	106056
106.156	50	92	0	0	paper_bag	1113	92	0	stimuli\paper_bag\paper_bag_08s.jpg	7	-1	0	0	paper_bag_08s.jpg	0	0.0	0	127.40187274766501	127.451854132829	0.0499813851638464	106156
106.256	50	93	0	0	motherboard	1024	93	0	stimuli\motherboard\motherboard_09s.jpg	8	-1	0	0	motherboard_09s.jpg	0	0.0	0	127.501857704628	127.55185493739599	0.0499972327670548	106256
106.356	50	94	0	0	gum	724	94	0	stimuli\gum\gum_08s.jpg	7	-1	0	0	gum_08s.jpg	0	0.0	0	127.601879964408	127.65185964290899	0.0499796785006765	106356
106.456	50	95	0	0	bomb	160	95	0	stimuli\bomb\bomb_04s.jpg	3	-1	0	0	bomb_04s.jpg	0	0.0	0	127.701878818509	127.75186166653299	0.0499828480242286	106456
106.556	50	96	0	0	dessert	481	96	0	stimuli\dessert\dessert_08s.jpg	7	-1	0	0	dessert_08s.jpg	0	0.0	0	127.80188108593599	127.851861983479	0.049980897543719004	106556
106.656	50	97	0	0	forklift	635	97	0	stimuli\forklift\forklift_07s.jpg	6	-1	0	0	forklift_07s.jpg	0	0.0	0	127.901887985732	127.951864494709	0.0499765089771245	106656
106.756	50	98	0	0	fountain_pen	637	98	0	stimuli\fountain_pen\fountain_pen_03s.jpg	2	-1	0	0	fountain_pen_03s.jpg	0	0.0	0	128.001887327453	128.051866762136	0.0499794346833369	106756
106.856	50	99	0	0	chisel	336	99	0	stimuli\chisel\chisel_12s.jpg	11	-1	0	0	chisel_12s.jpg	0	0.0	0	128.10188861964	128.151871955284	0.049983335644355996	106856
106.956	50	100	0	0	totem_pole	1689	100	0	stimuli\totem_pole\totem_pole_01b.jpg	0	-1	0	0	totem_pole_01b.jpg	0	0.0	0	128.20189356897	128.251878611278	0.0499850423075259	106956
107.056	50	101	0	0	ram	1282	101	0	stimuli\ram\ram_04s.jpg	3	-1	0	0	ram_04s.jpg	0	0.0	0	128.30188584022102	128.351875271081	0.0499894308595685	107056
107.156	50	102	0	0	furnace	651	102	0	stimuli\furnace\furnace_11s.jpg	10	-1	0	0	furnace_11s.jpg	0	0.0	0	128.401901029531	128.451878026128	0.0499769965972519	107156
107.256	50	103	0	0	hoodie	792	103	0	stimuli\hoodie\hoodie_09s.jpg	8	-1	0	0	hoodie_09s.jpg	0	0.0	0	128.50189963981398	128.551863958332	0.0499643185175955	107256
107.356	50	104	0	0	marker	975	104	0	stimuli\marker\marker_12s.jpg	11	-1	0	0	marker_12s.jpg	0	0.0	0	128.601904589144	128.651884267645	0.0499796785006765	107356
107.456	50	105	0	0	goldfish	688	105	0	stimuli\goldfish\goldfish_06s.jpg	5	-1	0	0	goldfish_06s.jpg	0	0.0	0	128.701908075614	128.751885559832	0.0499774842173792	107456
107.556	50	106	0	0	lavender	904	106	0	stimuli\lavender\lavender_08s.jpg	7	-1	0	0	lavender_08s.jpg	0	0.0	0	128.801908148758	128.851885876793	0.0499777280347189	107556
107.656	50	107	0	0	swizzle_stick	1601	107	0	stimuli\swizzle_stick\swizzle_stick_07s.jpg	6	-1	0	0	swizzle_stick_07s.jpg	0	0.0	0	128.90191504856898	128.951877172804	0.0499621242342982	107656
107.756	50	108	0	0	boar	151	108	0	stimuli\boar\boar_10s.jpg	9	-1	0	0	boar_10s.jpg	0	0.0	0	129.001896104586	129.051892849733	0.0499967451469274	107756
107.856	50	109	0	0	stethoscope	1550	109	0	stimuli\stethoscope\stethoscope_05s.jpg	4	-1	0	0	stethoscope_05s.jpg	0	0.0	0	129.10192104626898	129.15189853048702	0.0499774842173792	107856
107.956	50	110	0	0	trolley	1715	110	0	stimuli\trolley\trolley_06s.jpg	5	-1	0	0	trolley_06s.jpg	0	0.0	0	129.20191892513	129.25189811601	0.0499791908805491	107956
108.056	50	111	0	0	taxi	1630	111	0	stimuli\taxi\taxi_12s.jpg	11	-1	0	0	taxi_12s.jpg	0	0.0	0	129.30191899827298	129.351903796764	0.0499847984901862	108056
108.156	50	112	0	0	engine	557	112	0	stimuli\engine\engine_10s.jpg	9	-1	0	0	engine_10s.jpg	0	0.0	0	129.401925166647	129.45189167944798	0.0499665128008928	108156
108.256	50	113	0	0	maple_syrup	971	113	0	stimuli\maple_syrup\maple_syrup_05s.jpg	4	-1	0	0	maple_syrup_05s.jpg	0	0.0	0	129.50194279405702	129.551904918291	0.0499621242342982	108256
108.356	50	114	0	0	celery	291	114	0	stimuli\celery\celery_08n.jpg	7	-1	0	0	celery_08n.jpg	0	0.0	0	129.60192897007798	129.651918644755	0.0499896746769082	108356
108.456	50	115	0	0	cage	236	115	0	stimuli\cage\cage_03s.jpg	2	-1	0	0	cage_03s.jpg	0	0.0	0	129.701928799404	129.751908477905	0.0499796785006765	108456
108.556	50	116	0	0	scrabble	1385	116	0	stimuli\scrabble\scrabble_01b.jpg	0	-1	0	0	scrabble_01b.jpg	0	0.0	0	129.801932773495	129.851908063429	0.049975289934082005	108556
108.656	50	117	0	0	mitten	1008	117	0	stimuli\mitten\mitten_08s.jpg	7	-1	0	0	mitten_08s.jpg	0	0.0	0	129.90193089617202	129.951913012759	0.0499821165867615	108656
108.756	50	118	0	0	horse	798	118	0	stimuli\horse\horse_01b.jpg	0	-1	0	0	horse_01b.jpg	0	0.0	0	130.001936333108	130.05191844971	0.0499821166013135	108756
108.856	50	119	0	0	hearing_aid	770	119	0	stimuli\hearing_aid\hearing_aid_10s.jpg	9	-1	0	0	hearing_aid_10s.jpg	0	0.0	0	130.101938112915	130.151925105703	0.0499869927880354	108856
108.956	50	120	0	0	apple_tree	31	120	0	stimuli\apple_tree\apple_tree_01b.jpg	0	-1	0	0	apple_tree_01b.jpg	0	0.0	0	130.20194062416002	130.25192542265	0.0499847984901862	108956
109.056	50	121	0	0	truck	1720	121	0	stimuli\truck\truck_07s.jpg	6	-1	0	0	truck_07s.jpg	0	0.0	0	130.30194264776898	130.35192232627	0.0499796785006765	109056
109.156	50	122	0	0	dumpling	532	122	0	stimuli\dumpling\dumpling_01b.jpg	0	-1	0	0	dumpling_01b.jpg	0	0.0	0	130.401944915197	130.451924106077	0.0499791908805491	109156
109.256	50	123	0	0	sponge	1517	123	0	stimuli\sponge\sponge_02s.jpg	1	-1	0	0	sponge_02s.jpg	0	0.0	0	130.50195059595	130.55193563825702	0.0499850423075259	109256
109.356	50	124	0	0	bracket	189	124	0	stimuli\bracket\bracket_01b.jpg	0	-1	0	0	bracket_01b.jpg	0	0.0	0	130.601947011965	130.651932298075	0.0499852861103136	109356
109.456	50	125	0	0	finger	588	125	0	stimuli\finger\finger_06s.jpg	5	-1	0	0	finger_06s.jpg	0	0.0	0	130.701951229858	130.751935053107	0.0499838232499314	109456
109.556	50	126	0	0	birdhouse	131	126	0	stimuli\birdhouse\birdhouse_06s.jpg	5	-1	0	0	birdhouse_06s.jpg	0	0.0	0	130.80196203061502	130.851938295775	0.0499762651597848	109556
109.656	50	127	0	0	basketball_hoop	84	127	0	stimuli\basketball_hoop\basketball_hoop_11s.jpg	10	-1	0	0	basketball_hoop_11s.jpg	0	0.0	0	130.90195527709102	130.951943245105	0.0499879680137383	109656
109.756	50	128	0	0	webcam	1799	128	0	stimuli\webcam\webcam_09s.jpg	8	-1	0	0	webcam_09s.jpg	0	0.0	0	131.00195388737498	131.051927958266	0.0499740708910394	109756
109.856	50	129	0	0	berry	121	129	0	stimuli\berry\berry_07s.jpg	6	-1	0	0	berry_07s.jpg	0	0.0	0	131.101948596712	131.15192900665002	0.0499804099381436	109856
109.956	50	130	0	0	drum	522	130	0	stimuli\drum\drum_08s.jpg	7	-1	0	0	drum_08s.jpg	0	0.0	0	131.20194940129298	131.251941514056	0.0499921127629932	109956
110.056	50	131	0	0	chicken_wire	324	131	0	stimuli\chicken_wire\chicken_wire_01b.jpg	0	-1	0	0	chicken_wire_01b.jpg	0	0.0	0	131.301976293456	131.35195621576	0.0499799223034643	110056
110.156	50	132	0	0	torso	1685	132	0	stimuli\torso\torso_08s.jpg	7	-1	0	0	torso_08s.jpg	0	0.0	0	131.401979048489	131.451957995567	0.0499789470777614	110156
110.256	50	133	0	0	moth	1023	133	0	stimuli\moth\moth_01b.jpg	0	-1	0	0	moth_01b.jpg	0	0.0	0	131.501978634013	131.551962457277	0.0499838232644834	110256
110.356	50	134	0	0	pet_food	1157	134	0	stimuli\pet_food\pet_food_01b.jpg	0	-1	0	0	pet_food_01b.jpg	0	0.0	0	131.60196651669702	131.651948877101	0.0499823604041012	110356
110.456	50	135	0	0	mattress	985	135	0	stimuli\mattress\mattress_12s.jpg	11	-1	0	0	mattress_12s.jpg	0	0.0	0	131.701968784124	131.751968698794	0.0499999146704795	110456
110.556	50	136	0	0	mosquito	1020	136	0	stimuli\mosquito\mosquito_05s.jpg	4	-1	0	0	mosquito_05s.jpg	0	0.0	0	131.801971782974	131.851968771938	0.0499969889642671	110556
110.656	50	137	0	0	bat2	88	137	0	stimuli\bat2\bat2_07s.jpg	6	-1	0	0	bat2_07s.jpg	0	0.0	0	131.901973318978	131.951972989831	0.0499996708531398	110656
110.756	50	138	0	0	vial	1760	138	0	stimuli\vial\vial_04s.jpg	3	-1	0	0	vial_04s.jpg	0	0.0	0	132.001995334955	132.051976963921	0.0499816289666342	110756
110.856	50	139	0	0	binder	126	139	0	stimuli\binder\binder_06s.jpg	5	-1	0	0	binder_06s.jpg	0	0.0	0	132.10197858525498	132.151961677082	0.0499830918270163	110856
110.956	50	140	0	0	twig	1740	140	0	stimuli\twig\twig_07s.jpg	6	-1	0	0	twig_07s.jpg	0	0.0	0	132.201978170779	132.25195931214	0.0499811413610587	110956
111.056	50	141	0	0	bookshelf	167	141	0	stimuli\bookshelf\bookshelf_02s.jpg	1	-1	0	0	bookshelf_02s.jpg	0	0.0	0	132.301975074399	132.35196279861	0.0499877242109505	111056
111.156	50	142	0	0	wetsuit	1803	142	0	stimuli\wetsuit\wetsuit_07s.jpg	6	-1	0	0	wetsuit_07s.jpg	0	0.0	0	132.40198587515602	132.45196165271003	0.0499757775542093	111156
111.256	50	143	0	0	loom	946	143	0	stimuli\loom\loom_09s.jpg	8	-1	0	0	loom_09s.jpg	0	0.0	0	132.501984729257	132.551967333464	0.0499826042068889	111256
111.356	50	144	0	0	dartboard	474	144	0	stimuli\dartboard\dartboard_06s.jpg	5	-1	0	0	dartboard_06s.jpg	0	0.0	0	132.601985777626	132.651965943747	0.0499801661208039	111356
111.456	50	145	0	0	sweater	1592	145	0	stimuli\sweater\sweater_07s.jpg	6	-1	0	0	sweater_07s.jpg	0	0.0	0	132.701988532674	132.75199844352	0.0500099108467111	111456
111.556	50	146	0	0	steering_wheel	1546	146	0	stimuli\steering_wheel\steering_wheel_02s.jpg	1	-1	0	0	steering_wheel_02s.jpg	0	0.0	0	132.802013230554	132.851991690011	0.049978459457633996	111556
111.656	50	147	0	0	polisher	1215	147	0	stimuli\polisher\polisher_03s.jpg	2	-1	0	0	polisher_03s.jpg	0	0.0	0	132.902015985601	132.952002003134	0.0499860175332287	111656
111.756	50	148	0	0	letter_opener	919	148	0	stimuli\letter_opener\letter_opener_07s.jpg	6	-1	0	0	letter_opener_07s.jpg	0	0.0	0	133.002026298724	133.052000369615	0.0499740708910394	111756
111.856	50	149	0	0	shell2	1418	149	0	stimuli\shell2\shell2_07s.jpg	6	-1	0	0	shell2_07s.jpg	0	0.0	0	133.102025152824	133.152006537988	0.0499813851638464	111856
111.956	50	150	0	0	snail	1476	150	0	stimuli\snail\snail_02s.jpg	1	-1	0	0	snail_02s.jpg	0	0.0	0	133.202008159322	133.25201148731898	0.0500033279968193	111956
112.056	50	151	0	0	drumstick	523	151	0	stimuli\drumstick\drumstick_04s.jpg	3	-1	0	0	drumstick_04s.jpg	0	0.0	0	133.30202773719802	133.352007659516	0.0499799223180162	112056
112.156	50	152	0	0	screen2	1389	152	0	stimuli\screen2\screen2_07s.jpg	6	-1	0	0	screen2_07s.jpg	0	0.0	0	133.402029029399	133.452010170746	0.0499811413465068	112156
112.256	50	153	0	0	bouquet	173	153	0	stimuli\bouquet\bouquet_07s.jpg	6	-1	0	0	bouquet_07s.jpg	0	0.0	0	133.502032028249	133.55201097531202	0.0499789470632095	112256
112.356	50	154	0	0	pulley	1250	154	0	stimuli\pulley\pulley_01b.jpg	0	-1	0	0	pulley_01b.jpg	0	0.0	0	133.602031613773	133.652014949403	0.0499833356298041	112356
112.456	50	155	0	0	amber	18	155	0	stimuli\amber\amber_09s.jpg	8	-1	0	0	amber_09s.jpg	0	0.0	0	133.702037782146	133.75201819206998	0.0499804099235917	112456
112.556	50	156	0	0	beetle	115	156	0	stimuli\beetle\beetle_02n.jpg	1	-1	0	0	beetle_02n.jpg	0	0.0	0	133.80202371434999	133.852019728074	0.0499960137240123	112556
112.656	50	157	0	0	go-kart	682	157	0	stimuli\go-kart\go-kart_09s.jpg	8	-1	0	0	go-kart_09s.jpg	0	0.0	0	133.902024031297	133.95202443358698	0.0500004022906069	112656
112.756	50	158	0	0	statue	1543	158	0	stimuli\statue\statue_10s.jpg	9	-1	0	0	statue_10s.jpg	0	0.0	0	134.002045072048	134.052011097228	0.0499660251807654	112756
112.856	50	159	0	0	rolling_pin	1328	159	0	stimuli\rolling_pin\rolling_pin_01b.jpg	0	-1	0	0	rolling_pin_01b.jpg	0	0.0	0	134.102051971844	134.152010926555	0.0499589547107462	112856
112.956	50	160	0	0	highchair	777	160	0	stimuli\highchair\highchair_06s.jpg	5	-1	0	0	highchair_06s.jpg	0	0.0	0	134.20204985070401	134.25202904158502	0.0499791908805491	112956
113.056	50	161	0	0	ladybug	888	161	0	stimuli\ladybug\ladybug_08s.jpg	7	-1	0	0	ladybug_08s.jpg	0	0.0	0	134.302052849554	134.352015949029	0.049963099474553	113056
113.156	50	162	0	0	gravy	711	162	0	stimuli\gravy\gravy_10s.jpg	9	-1	0	0	gravy_10s.jpg	0	0.0	0	134.402050240795	134.452026993589	0.0499767527944641	113156
113.256	50	163	0	0	beet	114	163	0	stimuli\beet\beet_04s.jpg	3	-1	0	1	beet_04s.jpg	0	0.0	0	134.50205104536101	134.552029748636	0.0499787032749737	113256
113.356	50	164	0	0	raccoon	1266	164	0	stimuli\raccoon\raccoon_04n.jpg	3	-1	0	0	raccoon_04n.jpg	0	0.0	0	134.602051118505	134.65203299128902	0.0499818727839738	113356
113.456	50	165	0	0	silicone	1444	165	0	stimuli\silicone\silicone_04s.jpg	3	-1	0	0	silicone_04s.jpg	0	0.0	0	134.702053142129	134.752036477759	0.0499833356298041	113456
113.556	50	166	0	0	flower	619	166	0	stimuli\flower\flower_01b.jpg	0	-1	0	0	flower_01b.jpg	0	0.0	0	134.802057360022	134.85203679472	0.0499794346978888	113556
113.656	50	167	0	0	pomegranate	1219	167	0	stimuli\pomegranate\pomegranate_02s.jpg	1	-1	0	0	pomegranate_02s.jpg	1	0.40305180923314793	1	134.902057189363	134.95203833071002	0.0499811413465068	113656
113.757	50	168	0	0	leggings	912	168	0	stimuli\leggings\leggings_12s.jpg	11	-1	0	0	leggings_12s.jpg	0	0.0	0	135.00206555201999	135.052044499083	0.0499789470632095	113757
113.857	50	169	0	0	fox	638	169	0	stimuli\fox\fox_04s.jpg	3	-1	0	0	fox_04s.jpg	0	0.0	0	135.102063918501	135.15204505984698	0.0499811413465068	113857
113.957	50	170	0	0	pasta	1123	170	0	stimuli\pasta\pasta_02s.jpg	1	-1	0	0	pasta_02s.jpg	0	0.0	0	135.20206911163402	135.252047571092	0.049978459457633996	113957
114.057	50	171	0	0	top_hat	1682	171	0	stimuli\top_hat\top_hat_12s.jpg	11	-1	0	0	top_hat_12s.jpg	0	0.0	0	135.302071135244	135.352049107081	0.0499779718375066	114057
114.157	50	172	0	0	banana	63	172	0	stimuli\banana\banana_06s.jpg	5	-1	0	0	banana_06s.jpg	0	0.0	0	135.402069501724	135.45205405641198	0.0499845546873985	114157
114.257	50	173	0	0	telephone_pole	1639	173	0	stimuli\telephone_pole\telephone_pole_04s.jpg	3	-1	0	0	telephone_pole_04s.jpg	0	0.0	0	135.502073475815	135.552054373358	0.049980897543719004	114257
114.357	50	174	0	0	knob	882	174	0	stimuli\knob\knob_04s.jpg	3	-1	0	0	knob_04s.jpg	0	0.0	0	135.602076230862	135.652056884603	0.0499806537409313	114357
114.457	50	175	0	0	honey	788	175	0	stimuli\honey\honey_02s.jpg	1	-1	0	0	honey_02s.jpg	0	0.0	0	135.70208118019198	135.75206573488	0.0499845546873985	114457
114.557	50	176	0	0	apple	30	176	0	stimuli\apple\apple_11s.jpg	10	-1	0	0	apple_11s.jpg	0	0.0	0	135.802081497139	135.85206312612	0.0499816289811861	114557
114.657	50	177	0	0	scaffolding	1370	177	0	stimuli\scaffolding\scaffolding_11s.jpg	10	-1	0	0	scaffolding_11s.jpg	0	0.0	0	135.902084008383	135.95206856307	0.0499845546873985	114657
114.757	50	178	0	0	green_beans	712	178	0	stimuli\green_beans\green_beans_05s.jpg	4	-1	0	0	green_beans_05s.jpg	0	0.0	0	136.002089689136	136.05207058668	0.049980897543719004	114757
114.857	50	179	0	0	quiche	1262	179	0	stimuli\quiche\quiche_06s.jpg	5	-1	0	0	quiche_06s.jpg	0	0.0	0	136.102089030857	136.15207456077	0.0499855299131013	114857
114.957	50	180	0	0	hookah	795	180	0	stimuli\hookah\hookah_07s.jpg	6	-1	0	0	hookah_07s.jpg	0	0.0	0	136.20209373637	136.25207755962	0.0499838232499314	114957
115.057	50	181	0	0	noodle	1061	181	0	stimuli\noodle\noodle_06s.jpg	5	-1	0	0	noodle_06s.jpg	0	0.0	0	136.30209380951402	136.352073000395	0.0499791908805491	115057
115.157	50	182	0	0	air_mattress	5	182	0	stimuli\air_mattress\air_mattress_11s.jpg	10	-1	0	0	air_mattress_11s.jpg	0	0.0	0	136.402099490268	136.452082338292	0.0499828480242286	115157
115.257	50	183	0	0	cement_mixer	294	183	0	stimuli\cement_mixer\cement_mixer_10s.jpg	9	-1	0	0	cement_mixer_10s.jpg	0	0.0	0	136.502104927218	136.552083142858	0.0499782156402944	115257
115.357	50	184	0	0	dragonfly	514	184	0	stimuli\dragonfly\dragonfly_01b.jpg	0	-1	0	0	dragonfly_01b.jpg	0	0.0	0	136.602102318458	136.652081021719	0.0499787032604218	115357
115.457	50	185	0	0	doorknocker	510	185	0	stimuli\doorknocker\doorknocker_05s.jpg	4	-1	0	0	doorknocker_05s.jpg	0	0.0	0	136.702106048731	136.752083532949	0.0499774842173792	115457
115.557	50	186	0	0	mosquito_net	1021	186	0	stimuli\mosquito_net\mosquito_net_11s.jpg	10	-1	0	0	mosquito_net_11s.jpg	0	0.0	0	136.802111973302	136.852088969899	0.0499769965972519	115557
115.657	50	187	0	0	nail_polish	1049	187	0	stimuli\nail_polish\nail_polish_04s.jpg	3	-1	0	0	nail_polish_04s.jpg	0	0.0	0	136.902110095965	136.952074902103	0.0499648061377229	115657
115.757	50	188	0	0	glass	677	188	0	stimuli\glass\glass_02s.jpg	1	-1	0	0	glass_02s.jpg	0	0.0	0	137.002110900547	137.052094236176	0.0499833356298041	115757
115.857	50	189	0	0	gavel	665	189	0	stimuli\gavel\gavel_11s.jpg	10	-1	0	0	gavel_11s.jpg	0	0.0	0	137.102114143199	137.152095528363	0.0499813851638464	115857
115.957	50	190	0	0	doll	499	190	0	stimuli\doll\doll_04s.jpg	3	-1	0	0	doll_04s.jpg	0	0.0	0	137.20209885636	137.25209877103	0.0499999146704795	115957
116.057	50	191	0	0	seed	1401	191	0	stimuli\seed\seed_08s.jpg	7	-1	0	1	seed_08s.jpg	0	0.0	0	137.302120384717	137.352098844174	0.049978459457633996	116057
116.157	50	192	0	0	pliers	1201	192	0	stimuli\pliers\pliers_10s.jpg	9	-1	0	0	pliers_10s.jpg	0	0.0	0	137.402130210234	137.452064052588	0.0499338423542213	116157
116.257	50	193	0	0	frog	644	193	0	stimuli\frog\frog_11s.jpg	10	-1	0	0	frog_11s.jpg	0	0.0	0	137.502110778631	137.552095089515	0.0499843108846107	116257
116.357	50	194	0	0	mistletoe	1007	194	0	stimuli\mistletoe\mistletoe_07s.jpg	6	-1	0	0	mistletoe_07s.jpg	0	0.0	0	137.602129381281	137.652109791205	0.0499804099235917	116357
116.457	50	195	0	0	fuse	652	195	0	stimuli\fuse\fuse_07s.jpg	6	-1	0	0	fuse_07s.jpg	0	0.0	0	137.702132623948	137.75211205863198	0.0499794346833369	116457
116.557	50	196	0	0	toilet_paper	1671	196	0	stimuli\toilet_paper\toilet_paper_04s.jpg	3	-1	0	0	toilet_paper_04s.jpg	1	0.541926536869141	1	137.802136598038	137.852114569876	0.0499779718375066	116557
116.657	50	197	0	0	praying_mantis	1238	197	0	stimuli\praying_mantis\praying_mantis_02s.jpg	1	-1	0	0	praying_mantis_02s.jpg	0	0.0	0	137.90212106738198	137.952083435433	0.0499623680516379	116657
116.757	50	198	0	0	wine	1823	198	0	stimuli\wine\wine_08s.jpg	7	-1	0	0	wine_08s.jpg	0	0.0	0	138.002145765262	138.052121055196	0.049975289934082005	116757
116.857	50	199	0	0	shredder	1437	199	0	stimuli\shredder\shredder_04s.jpg	3	-1	0	0	shredder_04s.jpg	0	0.0	0	138.102141449839	138.152125029286	0.0499835794471437	116857
116.957	50	200	0	0	cupcake	461	200	0	stimuli\cupcake\cupcake_08s.jpg	7	-1	0	0	cupcake_08s.jpg	0	0.0	0	138.202145423929	138.25212656528998	0.0499811413610587	116957
117.057	50	201	0	0	gourd	696	201	0	stimuli\gourd\gourd_02s.jpg	1	-1	0	0	gourd_02s.jpg	0	0.0	0	138.30214964183702	138.35215638316	0.0500067413231591	117057
117.157	50	202	0	0	bench	120	202	0	stimuli\bench\bench_09s.jpg	8	-1	0	0	bench_09s.jpg	0	0.0	0	138.402149714981	138.452135244894	0.0499855299131013	117157
117.257	50	203	0	0	water_bottle	1787	203	0	stimuli\water_bottle\water_bottle_01b.jpg	0	-1	0	0	water_bottle_01b.jpg	0	0.0	0	138.502140035751	138.55214287612802	0.0500028403766919	117257
117.357	50	204	0	0	ring	1313	204	0	stimuli\ring\ring_06s.jpg	5	-1	0	0	ring_06s.jpg	0	0.0	0	138.602157175541	138.652135634984	0.0499784594430821	117357
117.457	50	205	0	0	muffin	1035	205	0	stimuli\muffin\muffin_06n.jpg	5	-1	0	0	muffin_06n.jpg	0	0.0	0	138.702155298204	138.752134732902	0.0499794346978888	117457
117.557	50	206	0	0	sofa_bed	1492	206	0	stimuli\sofa_bed\sofa_bed_04s.jpg	3	-1	0	0	sofa_bed_04s.jpg	0	0.0	0	138.802159272294	138.852138950795	0.0499796785006765	117557
117.657	50	207	0	0	bungee	221	207	0	stimuli\bungee\bungee_06s.jpg	5	-1	0	0	bungee_06s.jpg	0	0.0	0	138.902159101635	138.952145606789	0.0499865051533561	117657
117.757	50	208	0	0	snowman	1482	208	0	stimuli\snowman\snowman_06s.jpg	5	-1	0	0	snowman_06s.jpg	0	0.0	0	139.002165026192	139.052148605639	0.0499835794471437	117757
117.857	50	209	0	0	pincushion	1179	209	0	stimuli\pincushion\pincushion_07s.jpg	6	-1	0	0	pincushion_07s.jpg	0	0.0	0	139.102163636489	139.152144290216	0.0499806537263794	117857
117.957	50	210	0	0	ice-cream_cone	817	210	0	stimuli\ice-cream_cone\ice-cream_cone_08s.jpg	7	-1	0	0	ice-cream_cone_08s.jpg	0	0.0	0	139.202191991499	139.252147532883	0.0499555413844064	117957
118.057	50	211	0	0	goblet	685	211	0	stimuli\goblet\goblet_03s.jpg	2	-1	0	0	goblet_03s.jpg	0	0.0	0	139.302168415146	139.352153945059	0.0499855299131013	118057
118.157	50	212	0	0	cantaloupe	263	212	0	stimuli\cantaloupe\cantaloupe_10s.jpg	9	-1	0	1	cantaloupe_10s.jpg	0	0.0	0	139.402170926376	139.45215718772698	0.0499862613505684	118157
118.257	50	213	0	0	gold	687	213	0	stimuli\gold\gold_07s.jpg	6	-1	0	0	gold_07s.jpg	0	0.0	0	139.502179776653	139.552159455154	0.0499796785006765	118257
118.357	50	214	0	0	broccoli	201	214	0	stimuli\broccoli\broccoli_05s.jpg	4	-1	0	0	broccoli_05s.jpg	0	0.0	0	139.60218204408	139.652156114971	0.0499740708910394	118357
118.457	50	215	0	0	weed	1802	215	0	stimuli\weed\weed_06s.jpg	5	-1	0	0	weed_06s.jpg	1	0.353933752645389	1	139.702182604844	139.75216277096501	0.0499801661208039	118457
118.557	50	216	0	0	grapefruit	703	216	0	stimuli\grapefruit\grapefruit_07s.jpg	6	-1	0	0	grapefruit_07s.jpg	0	0.0	0	139.802180727507	139.852164063152	0.049983335644355996	118557
118.657	50	217	0	0	llama	938	217	0	stimuli\llama\llama_10s.jpg	9	-1	0	0	llama_10s.jpg	0	0.0	0	139.902184213977	139.952167549622	0.049983335644355996	118657
118.757	50	218	0	0	spear	1510	218	0	stimuli\spear\spear_05s.jpg	4	-1	0	0	spear_05s.jpg	0	0.0	0	140.002194039494	140.052170060851	0.0499760213569971	118757
118.857	50	219	0	0	punching_bag	1256	219	0	stimuli\punching_bag\punching_bag_12s.jpg	11	-1	0	0	punching_bag_12s.jpg	0	0.0	0	140.102191918355	140.15219378349101	0.0500018651364371	118857
118.957	50	220	0	0	parrot	1121	220	0	stimuli\parrot\parrot_10s.jpg	9	-1	0	0	parrot_10s.jpg	0	0.0	0	140.202197842926	140.252176546186	0.0499787032604218	118957
119.057	50	221	0	0	quilt	1264	221	0	stimuli\quilt\quilt_02s.jpg	1	-1	0	0	quilt_02s.jpg	0	0.0	0	140.30219840369	140.35217710695	0.0499787032604218	119057
119.157	50	222	0	0	medal	991	222	0	stimuli\medal\medal_11s.jpg	10	-1	0	0	medal_11s.jpg	0	0.0	0	140.40219579493	140.452178399137	0.0499826042068889	119157
119.257	50	223	0	0	pigeon	1171	223	0	stimuli\pigeon\pigeon_03s.jpg	2	-1	0	0	pigeon_03s.jpg	0	0.0	0	140.502199525203	140.55218042274598	0.049980897543719004	119257
119.357	50	224	0	0	camera_lens	248	224	0	stimuli\camera_lens\camera_lens_03s.jpg	2	-1	0	0	camera_lens_03s.jpg	0	0.0	0	140.602203986913	140.652185372077	0.0499813851638464	119357
119.457	50	225	0	0	hotplate	806	225	0	stimuli\hotplate\hotplate_03s.jpg	2	-1	0	0	hotplate_03s.jpg	0	0.0	0	140.702207473383	140.752191296648	0.0499838232644834	119457
119.557	50	226	0	0	tadpole	1614	226	0	stimuli\tadpole\tadpole_06s.jpg	5	-1	0	0	tadpole_06s.jpg	0	0.0	0	140.802213885574	140.85218917550802	0.049975289934082005	119557
119.657	50	227	0	0	pitcher	1190	227	0	stimuli\pitcher\pitcher_03s.jpg	2	-1	0	0	pitcher_03s.jpg	0	0.0	0	140.902209326334	140.952194612444	0.0499852861103136	119657
119.757	50	228	0	0	aircraft_carrier	9	228	0	stimuli\aircraft_carrier\aircraft_carrier_02s.jpg	1	-1	0	0	aircraft_carrier_02s.jpg	0	0.0	0	141.002217445188	141.052194441785	0.0499769965972519	119757
119.857	50	229	0	0	brush	205	229	0	stimuli\brush\brush_10s.jpg	9	-1	0	0	brush_10s.jpg	0	0.0	0	141.102215080231	141.152197928255	0.0499828480242286	119857
119.957	50	230	0	0	swordfish	1603	230	0	stimuli\swordfish\swordfish_06s.jpg	5	-1	0	0	swordfish_06s.jpg	0	0.0	0	141.202221980042	141.252199708062	0.049977728020167	119957
120.057	50	231	0	0	chessboard	318	231	0	stimuli\chessboard\chessboard_09s.jpg	8	-1	0	0	chessboard_09s.jpg	0	0.0	0	141.302219615085	141.352200025009	0.0499804099235917	120057
120.157	50	232	0	0	wood	1833	232	0	stimuli\wood\wood_10s.jpg	9	-1	0	0	wood_10s.jpg	0	0.0	0	141.402222370132	141.452178886757	0.0499565166246612	120157
120.257	50	233	0	0	rust	1342	233	0	stimuli\rust\rust_04s.jpg	3	-1	0	0	rust_04s.jpg	0	0.0	0	141.50222658804	141.552206997963	0.0499804099235917	120257
120.357	50	234	0	0	triangle	1710	234	0	stimuli\triangle\triangle_02s.jpg	1	-1	0	0	triangle_02s.jpg	0	0.0	0	141.602231049736	141.652211947294	0.049980897558271	120357
120.457	50	235	0	0	chili	327	235	0	stimuli\chili\chili_11s.jpg	10	-1	0	0	chili_11s.jpg	0	0.0	0	141.702237949547	141.752213727101	0.0499757775542093	120457
120.557	50	236	0	0	tank1	1620	236	0	stimuli\tank1\tank1_09s.jpg	8	-1	0	0	tank1_09s.jpg	0	0.0	0	141.802238997931	141.85221623833098	0.0499772404000396	120557
120.657	50	237	0	0	cookie_cutter	401	237	0	stimuli\cookie_cutter\cookie_cutter_11s.jpg	10	-1	0	1	cookie_cutter_11s.jpg	0	0.0	0	141.902235901551	141.952216067657	0.049980166106252	120657
120.757	50	238	0	0	pinwheel	1185	238	0	stimuli\pinwheel\pinwheel_08s.jpg	7	-1	0	0	pinwheel_08s.jpg	0	0.0	0	142.002236706117	142.052219797944	0.0499830918270163	120757
120.857	50	239	0	0	paper_plate	1114	239	0	stimuli\paper_plate\paper_plate_11s.jpg	10	-1	0	0	paper_plate_11s.jpg	0	0.0	0	142.102238729727	142.152222065371	0.049983335644355996	120857
120.957	50	240	0	0	patty	1126	240	0	stimuli\patty\patty_10s.jpg	9	-1	0	0	patty_10s.jpg	1	0.34190664201742	1	142.202242703817	142.252227258505	0.0499845546873985	120957
121.057	50	241	0	0	teabag	1632	241	0	stimuli\teabag\teabag_03s.jpg	2	-1	0	0	teabag_03s.jpg	0	0.0	0	142.302248384585	142.352228794509	0.0499804099235917	121057
121.157	50	242	0	0	staple_gun	1538	242	0	stimuli\staple_gun\staple_gun_04s.jpg	3	-1	0	0	staple_gun_04s.jpg	0	0.0	0	142.402249920575	142.452229355273	0.0499794346978888	121157
121.257	50	243	0	0	garter	659	243	0	stimuli\garter\garter_01b.jpg	0	-1	0	0	garter_01b.jpg	0	0.0	0	142.502256820386	142.552232110305	0.04997528991952999	121257
121.357	50	244	0	0	harp	755	244	0	stimuli\harp\harp_08s.jpg	7	-1	0	0	harp_08s.jpg	0	0.0	0	142.602251773525	142.652232914887	0.0499811413610587	121357
121.457	50	245	0	0	inkwell	830	245	0	stimuli\inkwell\inkwell_02s.jpg	1	-1	0	0	inkwell_02s.jpg	0	0.0	0	142.702256235236	142.75223859564	0.0499823604041012	121457
121.557	50	246	0	0	denture	478	246	0	stimuli\denture\denture_08s.jpg	7	-1	0	0	denture_08s.jpg	0	0.0	0	142.802261184566	142.852242813533	0.0499816289666342	121557
121.657	50	247	0	0	pelican	1140	247	0	stimuli\pelican\pelican_10s.jpg	9	-1	0	0	pelican_10s.jpg	0	0.0	0	142.902261989133	142.952242399057	0.0499804099235917	121657
121.757	50	248	0	0	roller	1324	248	0	stimuli\roller\roller_11s.jpg	10	-1	0	0	roller_11s.jpg	0	0.0	0	143.00226425656	143.052246373147	0.0499821165867615	121757
121.857	50	249	0	0	notepad	1065	249	0	stimuli\notepad\notepad_02s.jpg	1	-1	0	0	notepad_02s.jpg	0	0.0	0	143.102266280184	143.152245714868	0.0499794346833369	121857
121.957	50	250	0	0	rattle	1287	250	0	stimuli\rattle\rattle_08s.jpg	7	-1	0	0	rattle_08s.jpg	0	0.0	0	143.202266597131	143.252255784188	0.0499891870567808	121957
122.057	50	251	0	0	walker2	1774	251	0	stimuli\walker2\walker2_02s.jpg	1	-1	0	0	walker2_02s.jpg	0	0.0	0	143.302274228365	143.352254150668	0.0499799223034643	122057
122.157	50	252	0	0	walrus	1779	252	0	stimuli\walrus\walrus_12s.jpg	11	-1	0	0	walrus_12s.jpg	0	0.0	0	143.402274057691	143.452258368576	0.0499843108846107	122157
122.257	50	253	0	0	snowboard	1481	253	0	stimuli\snowboard\snowboard_04s.jpg	3	-1	0	0	snowboard_04s.jpg	0	0.0	0	143.502280713685	143.55225722266198	0.0499765089771245	122257
122.357	50	254	0	0	magnet	956	254	0	stimuli\magnet\magnet_03s.jpg	2	-1	0	0	magnet_03s.jpg	0	0.0	0	143.602277861122	143.65225924628598	0.0499813851638464	122357
122.457	50	255	0	0	plug	1202	255	0	stimuli\plug\plug_01b.jpg	0	-1	0	0	plug_01b.jpg	0	0.0	0	143.702287930442	143.752264683222	0.0499767527799122	122457
122.557	50	256	0	0	chest2	320	256	0	stimuli\chest2\chest2_11s.jpg	10	-1	0	0	chest2_11s.jpg	0	0.0	0	143.802287515966	143.852267925889	0.0499804099235917	122557
122.657	50	257	0	0	skateboard	1449	257	0	stimuli\skateboard\skateboard_12s.jpg	11	-1	0	1	skateboard_12s.jpg	0	0.0	0	143.902284907206	143.952268486653	0.0499835794471437	122657
122.757	50	258	0	0	seismograph	1403	258	0	stimuli\seismograph\seismograph_02s.jpg	1	-1	0	0	seismograph_02s.jpg	0	0.0	0	144.002288637494	144.05226880360001	0.049980166106252	122757
122.857	50	259	0	0	sweeper	1594	259	0	stimuli\sweeper\sweeper_08s.jpg	7	-1	0	0	sweeper_08s.jpg	0	0.0	0	144.102273350654	144.15224254534402	0.0499691946897656	122857
122.957	50	260	0	0	goose	693	260	0	stimuli\goose\goose_06s.jpg	5	-1	0	0	goose_06s.jpg	1	0.341896158221061	1	144.202275861884	144.252256759428	0.049980897543719004	122957
123.057	50	261	0	0	locker	941	261	0	stimuli\locker\locker_10s.jpg	9	-1	0	0	locker_10s.jpg	0	0.0	0	144.30227130264402	144.352256588769	0.0499852861248655	123057
123.157	50	262	0	0	tick	1656	262	0	stimuli\tick\tick_07s.jpg	6	-1	0	0	tick_07s.jpg	0	0.0	0	144.402281371978	144.452288113302	0.0500067413231591	123157
123.257	50	263	0	0	pheasant	1160	263	0	stimuli\pheasant\pheasant_08s.jpg	7	-1	0	0	pheasant_08s.jpg	0	0.0	0	144.502304606998	144.552290624531	0.0499860175332287	123257
123.357	50	264	0	0	sandpaper	1356	264	0	stimuli\sandpaper\sandpaper_04s.jpg	3	-1	0	0	sandpaper_04s.jpg	0	0.0	0	144.602293952528	144.652288259589	0.0499943070608424	123357
123.457	50	265	0	0	jack	835	265	0	stimuli\jack\jack_02s.jpg	1	-1	0	0	jack_02s.jpg	0	0.0	0	144.702309141852	144.752275167033	0.0499660251807654	123457
123.557	50	266	0	0	balance_beam	58	266	0	stimuli\balance_beam\balance_beam_09s.jpg	8	-1	0	0	balance_beam_09s.jpg	0	0.0	0	144.802311896885	144.852276703023	0.0499648061377229	123557
123.657	50	267	0	0	typewriter	1741	267	0	stimuli\typewriter\typewriter_04s.jpg	3	-1	0	0	typewriter_04s.jpg	0	0.0	0	144.902316602413	144.952295549476	0.0499789470632095	123657
123.757	50	268	0	0	golf_club	690	268	0	stimuli\golf_club\golf_club_08s.jpg	7	-1	0	0	golf_club_08s.jpg	0	0.0	0	145.002342519336	145.05230318071	0.0499606613739161	123757
123.857	50	269	0	0	cape	266	269	0	stimuli\cape\cape_12s.jpg	11	-1	0	0	cape_12s.jpg	0	0.0	0	145.10230309538	145.152301790993	0.0499986956128851	123857
123.957	50	270	0	0	stingray	1556	270	0	stimuli\stingray\stingray_02s.jpg	1	-1	0	0	stingray_02s.jpg	0	0.0	0	145.202324379919	145.252308203184	0.0499838232644834	123957
124.057	50	271	0	0	eraser	559	271	0	stimuli\eraser\eraser_03s.jpg	2	-1	0	0	eraser_03s.jpg	0	0.0	0	145.302312262604	145.352307057285	0.0499947946809698	124057
124.157	50	272	0	0	gyroscope	731	272	0	stimuli\gyroscope\gyroscope_10s.jpg	9	-1	0	0	gyroscope_10s.jpg	0	0.0	0	145.40232915859102	145.452311762798	0.0499826042068889	124157
124.257	50	273	0	0	coffeemaker	382	273	0	stimuli\coffeemaker\coffeemaker_07s.jpg	6	-1	0	0	coffeemaker_07s.jpg	0	0.0	0	145.502315578415	145.552311104519	0.0499955261038849	124257
124.357	50	274	0	0	bike	123	274	0	stimuli\bike\bike_07s.jpg	6	-1	0	0	bike_07s.jpg	0	0.0	0	145.602337594391	145.652312884326	0.049975289934082005	124357
124.457	50	275	0	0	machine_gun	954	275	0	stimuli\machine_gun\machine_gun_06s.jpg	5	-1	0	0	machine_gun_06s.jpg	0	0.0	0	145.702336936098	145.752317102219	0.0499801661208039	124457
124.557	50	276	0	0	shopping_basket	1427	276	0	stimuli\shopping_basket\shopping_basket_06s.jpg	5	-1	0	0	shopping_basket_06s.jpg	0	0.0	0	145.802341641625	145.852320588689	0.0499789470632095	124557
124.657	50	277	0	0	plaster_cast	1195	277	0	stimuli\plaster_cast\plaster_cast_11s.jpg	10	-1	0	0	plaster_cast_11s.jpg	0	0.0	0	145.902324891926	145.95232309993298	0.0499982080073096	124657
124.757	50	278	0	0	crayon	435	278	0	stimuli\crayon\crayon_01b.jpg	0	-1	0	0	crayon_01b.jpg	0	0.0	0	146.002345201239	146.05232463592301	0.0499794346833369	124757
124.857	50	279	0	0	broom	203	279	0	stimuli\broom\broom_07s.jpg	6	-1	0	0	broom_07s.jpg	0	0.0	0	146.10234454294599	146.152326171927	0.0499816289811861	124857
124.957	50	280	0	0	blazer	137	280	0	stimuli\blazer\blazer_04s.jpg	3	-1	0	0	blazer_04s.jpg	0	0.0	0	146.202351930377	146.25233087744	0.0499789470632095	124957
125.057	50	281	0	0	roll	1323	281	0	stimuli\roll\roll_04s.jpg	3	-1	0	0	roll_04s.jpg	0	0.0	0	146.30235102828001	146.352332169627	0.0499811413465068	125057
125.157	50	282	0	0	drain	515	282	0	stimuli\drain\drain_02s.jpg	1	-1	0	0	drain_02s.jpg	0	0.0	0	146.40235305189	146.45233882562	0.049985773730441	125157
125.257	50	283	0	0	cot	420	283	0	stimuli\cot\cot_10s.jpg	9	-1	0	0	cot_10s.jpg	0	0.0	0	146.502354344077	146.552320125455	0.0499657813779777	125257
125.357	50	284	0	0	spur	1525	284	0	stimuli\spur\spur_11s.jpg	10	-1	0	0	spur_11s.jpg	0	0.0	0	146.602358561984	146.652323124305	0.0499645623203833	125357
125.457	50	285	0	0	scrambled_egg	1386	285	0	stimuli\scrambled_egg\scrambled_egg_07s.jpg	6	-1	0	0	scrambled_egg_07s.jpg	1	0.0	0	146.702361073214	146.75234709076202	0.0499860175477806	125457
125.557	50	286	0	0	blouse	144	286	0	stimuli\blouse\blouse_07s.jpg	6	-1	0	0	blouse_07s.jpg	0	0.0	0	146.802363828261	146.85234472580498	0.049980897543719004	125557
125.657	50	287	0	0	snake	1477	287	0	stimuli\snake\snake_05s.jpg	4	-1	0	0	snake_05s.jpg	0	0.0	0	146.902366827111	146.952348212275	0.0499813851638464	125657
125.757	50	288	0	0	leech	909	288	0	stimuli\leech\leech_06s.jpg	5	-1	0	0	leech_06s.jpg	0	0.0	0	147.002353246935	147.052355112086	0.050001865150989006	125757
125.857	50	289	0	0	paint	1096	289	0	stimuli\paint\paint_10s.jpg	9	-1	0	0	paint_10s.jpg	0	0.0	0	147.102363072452	147.152357623316	0.0499945508636301	125857
125.957	50	290	0	0	chin	330	290	0	stimuli\chin\chin_10s.jpg	9	-1	0	0	chin_10s.jpg	0	0.0	0	147.202379724622	147.252346237423	0.0499665128008928	125957
126.057	50	291	0	0	dagger	469	291	0	stimuli\dagger\dagger_12s.jpg	11	-1	0	0	dagger_12s.jpg	0	0.0	0	147.302371995873	147.35234704199	0.0499750461167423	126057
126.157	50	292	0	0	tablet	1610	292	0	stimuli\tablet\tablet_04s.jpg	3	-1	0	0	tablet_04s.jpg	0	0.0	0	147.402384503293	147.452343458004	0.0499589547107462	126157
126.257	50	293	0	0	chick	321	293	0	stimuli\chick\chick_06s.jpg	5	-1	0	0	chick_06s.jpg	0	0.0	0	147.50236458407	147.552343043528	0.049978459457633996	126257
126.357	50	294	0	0	teapot	1634	294	0	stimuli\teapot\teapot_04s.jpg	3	-1	0	0	teapot_04s.jpg	0	0.0	0	147.602364413411	147.652358720457	0.0499943070462905	126357
126.457	50	295	0	0	toucan	1690	295	0	stimuli\toucan\toucan_03s.jpg	2	-1	0	0	toucan_03s.jpg	0	0.0	0	147.70239837603	147.752374397402	0.049976021371549	126457
126.557	50	296	0	0	harness	754	296	0	stimuli\harness\harness_02s.jpg	1	-1	0	0	harness_02s.jpg	0	0.0	0	147.802397717751	147.852380809578	0.0499830918270163	126557
126.657	50	297	0	0	juicer2	856	297	0	stimuli\juicer2\juicer2_05s.jpg	4	-1	0	0	juicer2_05s.jpg	0	0.0	0	147.902385600435	147.952381370342	0.0499957699066726	126657
126.757	50	298	0	0	curb	462	298	0	stimuli\curb\curb_11s.jpg	10	-1	0	0	curb_11s.jpg	0	0.0	0	148.002405665931	148.05238290633102	0.0499772404000396	126757
126.857	50	299	0	0	whisk	1811	299	0	stimuli\whisk\whisk_01b.jpg	0	-1	0	0	whisk_01b.jpg	0	0.0	0	148.102402569551	148.152372495679	0.0499699261272326	126857
126.957	50	300	0	0	spider_web	1514	300	0	stimuli\spider_web\spider_web_11s.jpg	10	-1	0	0	spider_web_11s.jpg	0	0.0	0	148.202388257952	148.252368667876	0.0499804099235917	126957
127.057	50	301	0	0	cinnamon	348	301	0	stimuli\cinnamon\cinnamon_04s.jpg	3	-1	0	0	cinnamon_04s.jpg	0	0.0	0	148.302405153925	148.352388001949	0.0499828480242286	127057
127.157	50	302	0	0	headband	762	302	0	stimuli\headband\headband_08s.jpg	7	-1	0	0	headband_08s.jpg	0	0.0	0	148.402411809919	148.4523934389	0.0499816289811861	127157
127.257	50	303	0	0	stamp2	1536	303	0	stimuli\stamp2\stamp2_01b.jpg	0	-1	0	0	stamp2_01b.jpg	0	0.0	0	148.502413345923	148.552377420623	0.0499640747002559	127257
127.357	50	304	0	0	tricycle	1711	304	0	stimuli\tricycle\tricycle_02s.jpg	1	-1	0	0	tricycle_02s.jpg	0	0.0	0	148.602398302886	148.65239480423	0.0499965013441397	127357
127.457	50	305	0	0	chair	300	305	0	stimuli\chair\chair_05s.jpg	4	-1	0	0	chair_05s.jpg	0	0.0	0	148.70240081413098	148.752399997364	0.0499991832330124	127457
127.557	50	306	0	0	mouse1	1026	306	0	stimuli\mouse1\mouse1_03s.jpg	2	-1	0	0	mouse1_03s.jpg	0	0.0	0	148.80241966058398	148.85240055812798	0.049980897543719004	127557
127.657	50	307	0	0	cleaver	354	307	0	stimuli\cleaver\cleaver_03s.jpg	2	-1	0	0	cleaver_03s.jpg	0	0.0	0	148.902406568028	148.952406482698	0.0499999146704795	127657
127.757	50	308	0	0	mask	980	308	0	stimuli\mask\mask_10s.jpg	9	-1	0	0	mask_10s.jpg	0	0.0	0	149.002424439241	149.052406555842	0.0499821166013135	127757
135.307	50	309	0	0	mantle	969	0	1	stimuli\mantle\mantle_06s.jpg	5	-1	1	0	mantle_06s.jpg	0	0.0	0	156.55261586608	156.60259164363399	0.0499757775542093	135307
135.407	50	310	0	0	magnifying_glass	958	1	1	stimuli\magnifying_glass\magnifying_glass_09s.jpg	8	-1	1	0	magnifying_glass_09s.jpg	0	0.0	0	156.652612525897	156.702593667243	0.0499811413465068	135407
135.507	50	311	0	0	magnifier	957	2	1	stimuli\magnifier\magnifier_10s.jpg	9	-1	1	0	magnifier_10s.jpg	0	0.0	0	156.752612355223	156.802593984205	0.0499816289811861	135507
135.607	50	312	0	0	poodle	1221	3	1	stimuli\poodle\poodle_03s.jpg	2	-1	1	0	poodle_03s.jpg	0	0.0	0	156.852616085511	156.902576259265	0.0499601737537887	135607
135.707	50	313	0	0	clarinet	350	4	1	stimuli\clarinet\clarinet_04s.jpg	3	-1	1	0	clarinet_04s.jpg	0	0.0	0	156.952619815798	157.00259998190398	0.049980166106252	135707
135.807	50	314	0	0	lab_coat	885	5	1	stimuli\lab_coat\lab_coat_08s.jpg	7	-1	1	0	lab_coat_08s.jpg	0	0.0	0	157.052620376548	157.102598836005	0.049978459457633996	135807
135.907	50	315	0	0	blind	140	6	1	stimuli\blind\blind_10s.jpg	9	-1	1	0	blind_10s.jpg	0	0.0	0	157.152597775435	157.20260793008498	0.0500101546494989	135907
136.007	50	316	0	0	keg	866	7	1	stimuli\keg\keg_08s.jpg	7	-1	1	0	keg_08s.jpg	0	0.0	0	157.25262954378599	157.30260824704598	0.0499787032604218	136007
136.107	50	317	0	0	exerciser	561	8	1	stimuli\exerciser\exerciser_06s.jpg	5	-1	1	0	exerciser_06s.jpg	0	0.0	0	157.352629129309	157.402618803986	0.0499896746769082	136107
136.207	50	318	0	0	uniform	1747	9	1	stimuli\uniform\uniform_10s.jpg	9	-1	1	0	uniform_10s.jpg	0	0.0	0	157.452633347202	157.502607418093	0.0499740708910394	136207
136.307	50	319	0	0	spoon	1519	10	1	stimuli\spoon\spoon_05n.jpg	4	-1	1	0	spoon_05n.jpg	0	0.0	0	157.552608551807	157.602592862677	0.0499843108700588	136307
136.407	50	320	0	0	door	506	11	1	stimuli\door\door_03s.jpg	2	-1	1	0	door_03s.jpg	0	0.0	0	157.65261423256	157.702593667243	0.0499794346833369	136407
136.507	50	321	0	0	sauce	1362	12	1	stimuli\sauce\sauce_02s.jpg	1	-1	1	0	sauce_02s.jpg	0	0.0	0	157.752609185714	157.802595934671	0.0499867489561439	136507
136.607	50	322	0	0	backgammon	48	13	1	stimuli\backgammon\backgammon_06s.jpg	5	-1	1	0	backgammon_06s.jpg	0	0.0	0	157.852614378848	157.90261965731	0.0500052784627769	136607
136.707	50	323	0	0	lifesaver	925	14	1	stimuli\lifesaver\lifesaver_08s.jpg	7	-1	1	0	lifesaver_08s.jpg	0	0.0	0	157.952632006258	158.002602420005	0.04997041374736	136707
136.807	50	324	0	0	glove	680	15	1	stimuli\glove\glove_08s.jpg	7	-1	1	0	glove_08s.jpg	0	0.0	0	158.05262403369102	158.102604443615	0.0499804099235917	136807
136.907	50	325	0	0	inhaler	828	16	1	stimuli\inhaler\inhaler_10s.jpg	9	-1	1	0	inhaler_10s.jpg	0	0.0	0	158.152658483945	158.202662299562	0.0500038156169467	136907
137.007	50	326	0	0	roulette_wheel	1335	17	1	stimuli\roulette_wheel\roulette_wheel_01b.jpg	0	-1	1	0	roulette_wheel_01b.jpg	0	0.0	0	158.252659532314	158.302639698435	0.0499801661208039	137007
137.107	50	327	0	0	cigarette_holder	346	18	1	stimuli\cigarette_holder\cigarette_holder_06s.jpg	5	-1	1	0	cigarette_holder_06s.jpg	0	0.0	0	158.352648146421	158.402627581119	0.0499794346978888	137107
137.207	50	328	0	0	bank	69	19	1	stimuli\bank\bank_08s.jpg	7	-1	1	0	bank_08s.jpg	0	0.0	0	158.452667480495	158.502643501866	0.049976021371549	137207
137.307	50	329	0	0	tool	1676	20	1	stimuli\tool\tool_10s.jpg	9	-1	1	1	tool_10s.jpg	0	0.0	0	158.552667553638	158.60264967023997	0.0499821166013135	137307
137.407	50	330	0	0	plastic_film	1196	21	1	stimuli\plastic_film\plastic_film_06s.jpg	5	-1	1	0	plastic_film_06s.jpg	0	0.0	0	158.652674697252	158.70265340051301	0.0499787032604218	137407
137.507	50	331	0	0	airbag	7	22	1	stimuli\airbag\airbag_01b.jpg	0	-1	1	0	airbag_01b.jpg	0	0.0	0	158.75267135707	158.80263689463	0.049965537560638006	137507
137.607	50	332	0	0	pumpkin	1253	23	1	stimuli\pumpkin\pumpkin_07s.jpg	6	-1	1	0	pumpkin_07s.jpg	0	0.0	0	158.852688740662	158.9026667125	0.0499779718375066	137607
137.707	50	333	0	0	scraper	1387	24	1	stimuli\scraper\scraper_08s.jpg	7	-1	1	0	scraper_08s.jpg	0	0.0	0	158.952679549053	159.00265971517402	0.0499801661208039	137707
137.807	50	334	0	0	tree	1708	25	1	stimuli\tree\tree_10s.jpg	9	-1	1	0	tree_10s.jpg	0	0.0	0	159.052664262214	159.102660763558	0.0499965013441397	137807
137.907	50	335	0	0	leg	911	26	1	stimuli\leg\leg_07s.jpg	6	-1	1	0	leg_07s.jpg	0	0.0	0	159.152681889624	159.202669126214	0.0499872365908232	137907
138.007	50	336	0	0	bamboo	62	27	1	stimuli\bamboo\bamboo_02s.jpg	1	-1	1	0	bamboo_02s.jpg	0	0.0	0	159.252684157051	159.302649938429	0.0499657813779777	138007
138.107	50	337	0	0	urinal	1748	28	1	stimuli\urinal\urinal_10s.jpg	9	-1	1	0	urinal_10s.jpg	0	0.0	0	159.352689350198	159.402666834401	0.0499774842028273	138107
138.207	50	338	0	0	lid	923	29	1	stimuli\lid\lid_09s.jpg	8	-1	1	0	lid_09s.jpg	0	0.0	0	159.452691861428	159.502670564689	0.0499787032604218	138207
138.307	50	339	0	0	lunchbox	950	30	1	stimuli\lunchbox\lunchbox_07s.jpg	6	-1	1	0	lunchbox_07s.jpg	0	0.0	0	159.552694860278	159.602671856876	0.0499769965972519	138307
138.407	50	340	0	0	starfish	1541	31	1	stimuli\starfish\starfish_08s.jpg	7	-1	1	0	starfish_08s.jpg	0	0.0	0	159.652699321989	159.70266559098698	0.0499662689981051	138407
138.507	50	341	0	0	dynamite	536	32	1	stimuli\dynamite\dynamite_11s.jpg	10	-1	1	0	dynamite_11s.jpg	0	0.0	0	159.752681597063	159.802661763169	0.049980166106252	138507
138.607	50	342	0	0	horseshoe	799	33	1	stimuli\horseshoe\horseshoe_05s.jpg	4	-1	1	0	horseshoe_05s.jpg	0	0.0	0	159.852699712079	159.902693287717	0.0499935756379273	138607
138.707	50	343	0	0	lime	930	34	1	stimuli\lime\lime_06s.jpg	5	-1	1	0	lime_06s.jpg	0	0.0	0	159.952706368073	160.00268336467	0.0499769965972519	138707
138.807	50	344	0	0	lawnmower	905	35	1	stimuli\lawnmower\lawnmower_09s.jpg	8	-1	1	0	lawnmower_09s.jpg	0	0.0	0	160.052690106008	160.102689045423	0.0499989394156728	138807
138.907	50	345	0	0	weather_vane	1798	36	1	stimuli\weather_vane\weather_vane_05s.jpg	4	-1	1	0	weather_vane_05s.jpg	0	0.0	0	160.15270895246098	160.202693750951	0.0499847984901862	138907
139.007	50	346	0	0	shoelace	1426	37	1	stimuli\shoelace\shoelace_08s.jpg	7	-1	1	0	shoelace_08s.jpg	0	0.0	0	160.252716827497	160.302690654571	0.0499738270736998	139007
139.107	50	347	0	0	reindeer	1301	38	1	stimuli\reindeer\reindeer_05s.jpg	4	-1	1	0	reindeer_05s.jpg	0	0.0	0	160.352712024454	160.402694384858	0.0499823604041012	139107
139.207	50	348	0	0	violin	1764	39	1	stimuli\violin\violin_08s.jpg	7	-1	1	0	violin_08s.jpg	0	0.0	0	160.452721606154	160.50269811513098	0.0499765089771245	139207
139.307	50	349	0	0	candy	255	40	1	stimuli\candy\candy_04s.jpg	3	-1	1	0	candy_04s.jpg	0	0.0	0	160.552717046929	160.602685266393	0.0499682194640627	139307
139.407	50	350	0	0	christmas_card	340	41	1	stimuli\christmas_card\christmas_card_10s.jpg	9	-1	1	0	christmas_card_10s.jpg	0	0.0	0	160.652723702922	160.702703625226	0.0499799223034643	139407
139.507	50	351	0	0	scaffold	1369	42	1	stimuli\scaffold\scaffold_08s.jpg	7	-1	1	0	scaffold_08s.jpg	0	0.0	0	160.752725970335	160.802711987883	0.0499860175477806	139507
139.607	50	352	0	0	windshield_wiper	1821	43	1	stimuli\windshield_wiper\windshield_wiper_02s.jpg	1	-1	1	0	windshield_wiper_02s.jpg	0	0.0	0	160.85271019588998	160.90271547435302	0.0500052784627769	139607
139.707	50	353	0	0	license_plate	921	44	1	stimuli\license_plate\license_plate_03s.jpg	2	-1	1	0	license_plate_03s.jpg	0	0.0	0	160.952729042343	161.002700918936	0.0499718765931902	139707
139.807	50	354	0	0	mat	982	45	1	stimuli\mat\mat_09s.jpg	8	-1	1	1	mat_09s.jpg	0	0.0	0	161.05272984691	161.102716839683	0.0499869927734835	139807
139.907	50	355	0	0	girl	676	46	1	stimuli\girl\girl_11n.jpg	10	-1	1	0	girl_11n.jpg	0	0.0	0	161.15273333338	161.20269887094	0.049965537560638006	139907
140.007	50	356	0	0	ski_boots	1453	47	1	stimuli\ski_boots\ski_boots_03s.jpg	2	-1	1	0	ski_boots_03s.jpg	0	0.0	0	161.252735600807	161.302719911677	0.0499843108700588	140007
140.107	50	357	0	0	piecrust	1169	48	1	stimuli\piecrust\piecrust_05s.jpg	4	-1	1	0	piecrust_05s.jpg	1	0.292178330870229	1	161.35272299587098	161.402719253398	0.0499962575268	140107
140.207	50	358	0	0	waffle	1770	49	1	stimuli\waffle\waffle_11s.jpg	10	-1	1	0	waffle_11s.jpg	0	0.0	0	161.452741842324	161.502720545584	0.0499787032604218	140207
140.307	50	359	0	0	notebook	1064	50	1	stimuli\notebook\notebook_07s.jpg	6	-1	1	0	notebook_07s.jpg	0	0.0	0	161.552741915468	161.60272354443399	0.0499816289666342	140307
140.407	50	360	0	0	train_set	1700	51	1	stimuli\train_set\train_set_08s.jpg	7	-1	1	0	train_set_08s.jpg	0	0.0	0	161.652746377178	161.702728006145	0.0499816289666342	140407
140.507	50	361	0	0	cream_cheese	437	52	1	stimuli\cream_cheese\cream_cheese_03s.jpg	2	-1	1	0	cream_cheese_03s.jpg	0	0.0	0	161.752751814129	161.80271296312299	0.0499611489940435	140507
140.607	50	362	0	0	cruise_ship	450	53	1	stimuli\cruise_ship\cruise_ship_10s.jpg	9	-1	1	0	cruise_ship_10s.jpg	0	0.0	0	161.852736039669	161.902731321956	0.0499952822865453	140607
140.707	50	363	0	0	stick	1552	54	1	stimuli\stick\stick_09s.jpg	8	-1	1	0	stick_09s.jpg	0	0.0	0	161.952740745182	162.002734808426	0.0499940632435028	140707
140.807	50	364	0	0	peach	1129	55	1	stimuli\peach\peach_08s.jpg	7	-1	1	0	peach_08s.jpg	0	0.0	0	162.052755934506	162.102738782516	0.0499828480096767	140807
140.907	50	365	0	0	mug	1036	56	1	stimuli\mug\mug_07s.jpg	6	-1	1	0	mug_07s.jpg	0	0.0	0	162.15276039620198	162.202744463269	0.0499840670672711	140907
141.007	50	366	0	0	tent	1643	57	1	stimuli\tent\tent_03s.jpg	2	-1	1	0	tent_03s.jpg	0	0.0	0	162.252767783633	162.302740879284	0.0499730956507847	141007
141.107	50	367	0	0	salad	1348	58	1	stimuli\salad\salad_09s.jpg	8	-1	1	0	salad_09s.jpg	0	0.0	0	162.352768832003	162.40274582860002	0.0499769965972519	141107
141.207	50	368	0	0	bunkbed	222	59	1	stimuli\bunkbed\bunkbed_08s.jpg	7	-1	1	0	bunkbed_08s.jpg	0	0.0	0	162.4527650042	162.50273127319798	0.0499662689981051	141207
141.307	50	369	0	0	shoe_polish	1424	60	1	stimuli\shoe_polish\shoe_polish_02s.jpg	1	-1	1	0	shoe_polish_02s.jpg	0	0.0	0	162.552746791654	162.602731833947	0.049985042292974007	141307
141.407	50	370	0	0	soap	1487	61	1	stimuli\soap\soap_02s.jpg	1	-1	1	0	soap_02s.jpg	0	0.0	0	162.652772220958	162.702752630881	0.0499804099235917	141407
141.507	50	371	0	0	seal	1397	62	1	stimuli\seal\seal_10s.jpg	9	-1	1	0	seal_10s.jpg	0	0.0	0	162.752775707428	162.802754654505	0.0499789470777614	141507
141.607	50	372	0	0	glasses	678	63	1	stimuli\glasses\glasses_02s.jpg	1	-1	1	0	glasses_02s.jpg	0	0.0	0	162.852751887272	162.902767405729	0.0500155184563482	141607
141.707	50	373	0	0	gate	662	64	1	stimuli\gate\gate_06s.jpg	5	-1	1	0	gate_06s.jpg	0	0.0	0	162.952788775612	163.00275894554198	0.0499701699300203	141707
141.807	50	374	0	0	soy_sauce	1500	65	1	stimuli\soy_sauce\soy_sauce_12s.jpg	11	-1	1	0	soy_sauce_12s.jpg	0	0.0	0	163.05276471164	163.10276267583	0.0499979641899699	141807
141.907	50	375	0	0	drill	520	66	1	stimuli\drill\drill_12s.jpg	11	-1	1	0	drill_12s.jpg	0	0.0	0	163.152791603789	163.202764943257	0.0499733394681243	141907
142.007	50	376	0	0	closet	360	67	1	stimuli\closet\closet_07s.jpg	6	-1	1	0	closet_07s.jpg	0	0.0	0	163.252813375962	163.302768429727	0.04995505376427901	142007
142.107	50	377	0	0	emerald	555	68	1	stimuli\emerald\emerald_12s.jpg	11	-1	1	0	emerald_12s.jpg	0	0.0	0	163.35278833675	163.40275363050802	0.0499652937578503	142107
142.207	50	378	0	0	jetski	848	69	1	stimuli\jetski\jetski_02s.jpg	1	-1	1	0	jetski_02s.jpg	0	0.0	0	163.4527937737	163.502771745523	0.0499779718229547	142207
142.307	50	379	0	0	camera1	246	70	1	stimuli\camera1\camera1_12s.jpg	11	-1	1	0	camera1_12s.jpg	0	0.0	0	163.552778974481	163.60277401295	0.0499950384692056	142307
142.407	50	380	0	0	flypaper	622	71	1	stimuli\flypaper\flypaper_07s.jpg	6	-1	1	0	flypaper_07s.jpg	0	0.0	0	163.652794407593	163.702776280377	0.0499818727839738	142407
142.507	50	381	0	0	shawl	1411	72	1	stimuli\shawl\shawl_09s.jpg	8	-1	1	0	shawl_09s.jpg	0	0.0	0	163.752793505511	163.80277489067498	0.0499813851638464	142507
142.607	50	382	0	0	shark	1409	73	1	stimuli\shark\shark_05s.jpg	4	-1	1	0	shark_05s.jpg	0	0.0	0	163.852803331014	163.902778864765	0.0499755337514216	142607
142.707	50	383	0	0	crucifix	449	74	1	stimuli\crucifix\crucifix_04s.jpg	3	-1	1	0	crucifix_04s.jpg	0	0.0	0	163.952800722254	164.002779913135	0.0499791908805491	142707
142.807	50	384	0	0	elbow	552	75	1	stimuli\elbow\elbow_02s.jpg	1	-1	1	0	elbow_02s.jpg	0	0.0	0	164.05280103921498	164.10278169294202	0.0499806537263794	142807
142.907	50	385	0	0	chipmunk	334	76	1	stimuli\chipmunk\chipmunk_05s.jpg	4	-1	1	0	chipmunk_05s.jpg	0	0.0	0	164.152805500926	164.20278737371	0.0499818727839738	142907
143.007	50	386	0	0	pin	1177	77	1	stimuli\pin\pin_05s.jpg	4	-1	1	0	pin_05s.jpg	0	0.0	0	164.25280801215598	164.302787934459	0.0499799223034643	143007
143.107	50	387	0	0	turbine	1731	78	1	stimuli\turbine\turbine_09s.jpg	8	-1	1	0	turbine_09s.jpg	0	0.0	0	164.352808329102	164.40279361522698	0.0499852861248655	143107
143.207	50	388	0	0	firecracker	594	79	1	stimuli\firecracker\firecracker_07s.jpg	6	-1	1	0	firecracker_07s.jpg	0	0.0	0	164.45281449748998	164.502775646484	0.0499611489940435	143207
143.307	50	389	0	0	checkers	311	80	1	stimuli\checkers\checkers_01b.jpg	0	-1	1	0	checkers_01b.jpg	0	0.0	0	164.552814814437	164.602792542457	0.049977728020167	143307
143.407	50	390	0	0	tray	1705	81	1	stimuli\tray\tray_10s.jpg	9	-1	1	0	tray_10s.jpg	0	0.0	0	164.652816350426	164.702801148931	0.0499847985047381	143407
143.507	50	391	0	0	sand	1351	82	1	stimuli\sand\sand_04s.jpg	3	-1	1	0	sand_04s.jpg	0	0.0	0	164.752819105473	164.802800978257	0.0499818727839738	143507
143.607	50	392	0	0	nacho	1045	83	1	stimuli\nacho\nacho_04s.jpg	3	-1	1	0	nacho_04s.jpg	0	0.0	0	164.852808938638	164.90280617139098	0.0499972327525029	143607
143.707	50	393	0	0	dishwashing_liquid	492	84	1	stimuli\dishwashing_liquid\dishwashing_liquid_08s.jpg	7	-1	1	0	dishwashing_liquid_08s.jpg	1	0.0	0	164.952826078428	165.002808682635	0.0499826042068889	143707
143.807	50	394	0	0	chandelier	305	85	1	stimuli\chandelier\chandelier_06s.jpg	5	-1	1	0	chandelier_06s.jpg	0	0.0	0	165.052810791589	165.102784131042	0.0499733394535724	143807
143.907	50	395	0	0	measuring_cup	986	86	1	stimuli\measuring_cup\measuring_cup_01b.jpg	0	-1	1	0	measuring_cup_01b.jpg	0	0.0	0	165.152835733272	165.202809316543	0.0499735832709121	143907
144.007	50	396	0	0	noisemaker	1060	87	1	stimuli\noisemaker\noisemaker_02s.jpg	1	-1	1	0	noisemaker_02s.jpg	0	0.0	0	165.252830930229	165.302814997296	0.0499840670672711	144007
144.107	50	397	0	0	smoothie	1474	88	1	stimuli\smoothie\smoothie_07s.jpg	6	-1	1	0	smoothie_07s.jpg	0	0.0	0	165.35281832529301	165.40281628948298	0.0499979641899699	144107
144.207	50	398	0	0	ruler	1341	89	1	stimuli\ruler\ruler_06s.jpg	5	-1	1	0	ruler_06s.jpg	0	0.0	0	165.452839609832	165.502817825472	0.0499782156402944	144207
144.307	50	399	0	0	dogfood	496	90	1	stimuli\dogfood\dogfood_06s.jpg	5	-1	1	0	dogfood_06s.jpg	0	0.0	0	165.552841145836	165.60281984909702	0.0499787032604218	144307
144.407	50	400	0	0	cross	443	91	1	stimuli\cross\cross_12s.jpg	11	-1	1	0	cross_12s.jpg	0	0.0	0	165.652842438023	165.702823091764	0.0499806537409313	144407
144.507	50	401	0	0	walker1	1773	92	1	stimuli\walker1\walker1_10s.jpg	9	-1	1	0	walker1_10s.jpg	0	0.0	0	165.752831295948	165.802811949674	0.0499806537263794	144507
144.607	50	402	0	0	knee	877	93	1	stimuli\knee\knee_03s.jpg	2	-1	1	0	knee_03s.jpg	0	0.0	0	165.852851117626	165.902830064704	0.0499789470777614	144607
144.707	50	403	0	0	crutch	452	94	1	stimuli\crutch\crutch_10s.jpg	9	-1	1	0	crutch_10s.jpg	0	0.0	0	165.952833636504	166.00283086927098	0.0499972327670548	144707
144.807	50	404	0	0	purse	1259	95	1	stimuli\purse\purse_08s.jpg	7	-1	1	0	purse_08s.jpg	0	0.0	0	166.052851507731	166.102819239575	0.0499677318439353	144807
144.907	50	405	0	0	filter	587	96	1	stimuli\filter\filter_07s.jpg	6	-1	1	0	filter_07s.jpg	0	0.0	0	166.152855238004	166.202836135548	0.049980897543719004	144907
145.007	50	406	0	0	ivy	834	97	1	stimuli\ivy\ivy_05s.jpg	4	-1	1	0	ivy_05s.jpg	0	0.0	0	166.252858968292	166.302860589625	0.0500016213336494	145007
145.107	50	407	0	0	shower_curtain	1435	98	1	stimuli\shower_curtain\shower_curtain_02s.jpg	1	-1	1	0	shower_curtain_02s.jpg	0	0.0	0	166.352860504296	166.402826773279	0.0499662689835532	145107
145.207	50	408	0	0	rocking_chair	1321	99	1	stimuli\rocking_chair\rocking_chair_06s.jpg	5	-1	1	0	rocking_chair_06s.jpg	0	0.0	0	166.452864478386	166.502849764496	0.0499852861103136	145207
145.307	50	409	0	0	mallet	962	100	1	stimuli\mallet\mallet_02s.jpg	1	-1	1	0	mallet_02s.jpg	0	0.0	0	166.552852361056	166.602846668116	0.0499943070608424	145307
145.407	50	410	0	0	roof_rack	1329	101	1	stimuli\roof_rack\roof_rack_11s.jpg	10	-1	1	0	roof_rack_11s.jpg	0	0.0	0	166.65286803799998	166.70285064220698	0.0499826042068889	145407
145.507	50	411	0	0	rat	1285	102	1	stimuli\rat\rat_07s.jpg	6	-1	1	0	rat_07s.jpg	0	0.0	0	166.752853970203	166.802853884874	0.0499999146704795	145507
145.607	50	412	0	0	turtleneck	1737	103	1	stimuli\turtleneck\turtleneck_04s.jpg	3	-1	1	0	turtleneck_04s.jpg	0	0.0	0	166.852855993813	166.902856396104	0.0500004022906069	145607
145.707	50	413	0	0	icicle	824	104	1	stimuli\icicle\icicle_01b.jpg	0	-1	1	0	icicle_01b.jpg	0	0.0	0	166.952875571704	167.002858175911	0.0499826042068889	145707
145.807	50	414	0	0	man	963	105	1	stimuli\man\man_09s.jpg	8	-1	1	0	man_09s.jpg	0	0.0	0	167.05287954579399	167.10286068713998	0.0499811413465068	145807
145.907	50	415	0	0	stilt	1555	106	1	stimuli\stilt\stilt_12s.jpg	11	-1	1	0	stilt_12s.jpg	0	0.0	0	167.152883519884	167.202864173625	0.0499806537409313	145907
146.007	50	416	0	0	garlic	658	107	1	stimuli\garlic\garlic_01b.jpg	0	-1	1	0	garlic_01b.jpg	0	0.0	0	167.252885787311	167.302802075399	0.04991628808784299	146007
146.107	50	417	0	0	hip	780	108	1	stimuli\hip\hip_03s.jpg	2	-1	1	0	hip_03s.jpg	0	0.0	0	167.352870012852	167.40285944372602	0.0499894308741204	146107
146.207	50	418	0	0	guinea_pig	722	109	1	stimuli\guinea_pig\guinea_pig_03s.jpg	2	-1	1	0	guinea_pig_03s.jpg	0	0.0	0	167.452888859305	167.502851714962	0.0499628556572134	146207
146.307	50	419	0	0	granola	701	110	1	stimuli\granola\granola_08s.jpg	7	-1	1	0	granola_08s.jpg	0	0.0	0	167.552891858155	167.602858370956	0.0499665128008928	146307
146.407	50	420	0	0	hedgehog	774	111	1	stimuli\hedgehog\hedgehog_02s.jpg	1	-1	1	0	hedgehog_02s.jpg	0	0.0	0	167.652894857019	167.702875510746	0.0499806537263794	146407
146.507	50	421	0	0	ginger	673	112	1	stimuli\ginger\ginger_02s.jpg	1	-1	1	0	ginger_02s.jpg	0	0.0	0	167.752895661586	167.802878997216	0.0499833356298041	146507
146.607	50	422	0	0	satellite_dish	1361	113	1	stimuli\satellite_dish\satellite_dish_12s.jpg	11	-1	1	0	satellite_dish_12s.jpg	0	0.0	0	167.85288817664	167.902882483701	0.0499943070608424	146607
146.707	50	423	0	0	goat	684	114	1	stimuli\goat\goat_08s.jpg	7	-1	1	0	goat_08s.jpg	0	0.0	0	167.952902878344	168.002883775887	0.049980897543719004	146707
146.807	50	424	0	0	breakfast	197	115	1	stimuli\breakfast\breakfast_09s.jpg	8	-1	1	0	breakfast_09s.jpg	0	0.0	0	168.052904658151	168.102883849031	0.0499791908805491	146807
146.907	50	425	0	0	car_seat	269	116	1	stimuli\car_seat\car_seat_01b.jpg	0	-1	1	0	car_seat_01b.jpg	0	0.0	0	168.152906437957	168.202889042164	0.0499826042068889	146907
147.007	50	426	0	0	mongoose	1016	117	1	stimuli\mongoose\mongoose_05s.jpg	4	-1	1	0	mongoose_05s.jpg	0	0.0	0	168.252908949187	168.302873023902	0.0499640747148078	147007
147.107	50	427	0	0	shrimp	1438	118	1	stimuli\shrimp\shrimp_10s.jpg	9	-1	1	0	shrimp_10s.jpg	0	0.0	0	168.35291219185498	168.402893089398	0.049980897543719004	147107
147.207	50	428	0	0	school_bus	1378	119	1	stimuli\school_bus\school_bus_08s.jpg	7	-1	1	0	school_bus_08s.jpg	0	0.0	0	168.452915678325	168.502879021602	0.0499633432773408	147207
147.307	50	429	0	0	cushion	466	120	1	stimuli\cushion\cushion_01b.jpg	0	-1	1	0	cushion_01b.jpg	0	0.0	0	168.552900147668	168.602901281381	0.050001133713522	147307
147.407	50	430	0	0	pie	1168	121	1	stimuli\pie\pie_03s.jpg	2	-1	1	0	pie_03s.jpg	0	0.0	0	168.65292630840798	168.702900623102	0.0499743146938272	147407
147.507	50	431	0	0	saffron	1345	122	1	stimuli\saffron\saffron_05s.jpg	4	-1	1	0	saffron_05s.jpg	0	0.0	0	168.752907120623	168.80290167148598	0.0499945508636301	147507
147.607	50	432	0	0	blueberry	149	123	1	stimuli\blueberry\blueberry_12n.jpg	11	-1	1	0	blueberry_12n.jpg	0	0.0	0	168.852918652803	168.902907596042	0.0499889432394411	147607
147.707	50	433	0	0	clover	366	124	1	stimuli\clover\clover_09s.jpg	8	-1	1	0	clover_09s.jpg	0	0.0	0	168.952927990686	169.00289109016	0.049963099474553	147707
147.807	50	434	0	0	shelf	1416	125	1	stimuli\shelf\shelf_06s.jpg	5	-1	1	0	shelf_06s.jpg	0	0.0	0	169.052928063829	169.102882386171	0.0499543223413639	147807
147.907	50	435	0	0	ostrich	1084	126	1	stimuli\ostrich\ostrich_03s.jpg	2	-1	1	0	ostrich_03s.jpg	0	0.0	0	169.15293910839	169.20291903070802	0.0499799223180162	147907
148.007	50	436	0	0	food_processor	627	127	1	stimuli\food_processor\food_processor_10s.jpg	9	-1	1	0	food_processor_10s.jpg	0	0.0	0	169.25293698725	169.302922029558	0.0499850423075259	148007
148.107	50	437	0	0	duck	525	128	1	stimuli\duck\duck_02s.jpg	1	-1	1	1	duck_02s.jpg	0	0.0	0	169.352938279437	169.402918933178	0.0499806537409313	148107
148.207	50	438	0	0	crepe	440	129	1	stimuli\crepe\crepe_01b.jpg	0	-1	1	0	crepe_01b.jpg	0	0.0	0	169.452941765921	169.502920469182	0.0499787032604218	148207
148.307	50	439	0	0	yo-yo	1847	130	1	stimuli\yo-yo\yo-yo_07s.jpg	6	-1	1	0	yo-yo_07s.jpg	0	0.0	0	169.552941839051	169.602906645188	0.0499648061377229	148307
148.407	50	440	0	0	mop	1019	131	1	stimuli\mop\mop_05s.jpg	4	-1	1	0	mop_05s.jpg	1	0.350147882505553	1	169.652943375055	169.702925247839	0.0499818727839738	148407
148.507	50	441	0	0	dough	513	132	1	stimuli\dough\dough_03s.jpg	2	-1	1	0	dough_03s.jpg	0	0.0	0	169.752949787246	169.802926783843	0.0499769965972519	148507
148.607	50	442	0	0	modem	1011	133	1	stimuli\modem\modem_03s.jpg	2	-1	1	0	modem_03s.jpg	0	0.0	0	169.852950347995	169.9029351465	0.0499847985047381	148607
148.707	50	443	0	0	coffee_bean	378	134	1	stimuli\coffee_bean\coffee_bean_04s.jpg	3	-1	1	0	coffee_bean_04s.jpg	0	0.0	0	169.952952371619	170.002917665377	0.0499652937578503	148707
148.807	50	444	0	0	desk	480	135	1	stimuli\desk\desk_11s.jpg	10	-1	1	0	desk_11s.jpg	0	0.0	0	170.052953907609	170.102937487056	0.0499835794471437	148807
148.907	50	445	0	0	melon	994	136	1	stimuli\melon\melon_03s.jpg	2	-1	1	0	melon_03s.jpg	0	0.0	0	170.15296080742	170.2029375602	0.0499767527799122	148907
149.007	50	446	0	0	hatchet	759	137	1	stimuli\hatchet\hatchet_05s.jpg	4	-1	1	0	hatchet_05s.jpg	0	0.0	0	170.25294405772	170.302957869513	0.0500138117931783	149007
149.107	50	447	0	0	chimney	329	138	1	stimuli\chimney\chimney_09s.jpg	8	-1	1	0	chimney_09s.jpg	0	0.0	0	170.352956808943	170.402927710311	0.0499709013674874	149107
149.207	50	448	0	0	nose	1063	139	1	stimuli\nose\nose_06s.jpg	5	-1	1	0	nose_06s.jpg	0	0.0	0	170.45296492779698	170.502947288202	0.0499823604041012	149207
149.307	50	449	0	0	rollerskate	1327	140	1	stimuli\rollerskate\rollerskate_04s.jpg	3	-1	1	0	rollerskate_04s.jpg	0	0.0	0	170.552915020045	170.60294833657102	0.0500333165255142	149307
149.407	50	450	0	0	salami	1349	141	1	stimuli\salami\salami_08s.jpg	7	-1	1	0	salami_08s.jpg	0	0.0	0	170.652957759798	170.702953529704	0.0499957699066726	149407
149.507	50	451	0	0	creme_brulee	439	142	1	stimuli\creme_brulee\creme_brulee_05s.jpg	4	-1	1	0	creme_brulee_05s.jpg	0	0.0	0	170.752972217684	170.80295482190598	0.0499826042214409	149507
149.607	50	452	0	0	penholder	1146	143	1	stimuli\penholder\penholder_07s.jpg	6	-1	1	0	penholder_07s.jpg	0	0.0	0	170.852979848918	170.902957333135	0.0499774842173792	149607
149.707	50	453	0	0	outlet	1088	144	1	stimuli\outlet\outlet_11s.jpg	10	-1	1	0	outlet_11s.jpg	0	0.0	0	170.952990162055	171.002983981482	0.0499938194261631	149707
149.807	50	454	0	0	weasel	1797	145	1	stimuli\weasel\weasel_09s.jpg	8	-1	1	0	weasel_09s.jpg	0	0.0	0	171.052979019965	171.10296284323	0.0499838232644834	149807
149.907	50	455	0	0	reel	1299	146	1	stimuli\reel\reel_01b.jpg	0	-1	1	0	reel_01b.jpg	0	0.0	0	171.152966902649	171.202962184936	0.0499952822865453	149907
150.007	50	456	0	0	shovel	1432	147	1	stimuli\shovel\shovel_06s.jpg	5	-1	1	0	shovel_06s.jpg	0	0.0	0	171.252972095783	171.302972985693	0.0500008899107343	150007
150.107	50	457	0	0	radish	1274	148	1	stimuli\radish\radish_08n.jpg	7	-1	1	0	radish_08n.jpg	0	0.0	0	171.352991429856	171.402971352174	0.0499799223180162	150107
150.207	50	458	0	0	button1	230	149	1	stimuli\button1\button1_06s.jpg	5	-1	1	0	button1_06s.jpg	0	0.0	0	171.452974192551	171.50296971863997	0.049995526089333	150207
150.307	50	459	0	0	poppy	1224	150	1	stimuli\poppy\poppy_11s.jpg	10	-1	1	0	poppy_11s.jpg	0	0.0	0	171.552992795187	171.602976618451	0.0499838232644834	150307
150.407	50	460	0	0	bassoon	86	151	1	stimuli\bassoon\bassoon_07s.jpg	6	-1	1	0	bassoon_07s.jpg	0	0.0	0	171.652998719757	171.702980348724	0.0499816289666342	150407
150.507	50	461	0	0	dustpan	535	152	1	stimuli\dustpan\dustpan_04n.jpg	3	-1	1	1	dustpan_04n.jpg	0	0.0	0	171.752981482437	171.802976764739	0.0499952823010972	150507
150.607	50	462	0	0	sugar_cube	1579	153	1	stimuli\sugar_cube\sugar_cube_02s.jpg	1	-1	1	0	sugar_cube_02s.jpg	0	0.0	0	171.853003742232	171.902968304552	0.0499645623203833	150607
150.707	50	463	0	0	crystal_ball	455	154	1	stimuli\crystal_ball\crystal_ball_01b.jpg	0	-1	1	0	crystal_ball_01b.jpg	0	0.0	0	171.95298601729198	172.00298276243802	0.0499967451469274	150707
150.807	50	464	0	0	baseball_bat	79	155	1	stimuli\baseball_bat\baseball_bat_11s.jpg	10	-1	1	0	baseball_bat_11s.jpg	0	0.0	0	172.05299023519902	172.102986492726	0.0499962575268	150807
150.907	50	465	0	0	guitar	723	156	1	stimuli\guitar\guitar_09n.jpg	8	-1	1	0	guitar_09n.jpg	1	0.44192353800462997	1	172.152991771189	172.202974375396	0.0499826042068889	150907
151.007	50	466	0	0	tarp	1628	157	1	stimuli\tarp\tarp_05s.jpg	4	-1	1	0	tarp_05s.jpg	0	0.0	0	172.253008667176	172.302989808522	0.0499811413465068	151007
151.107	50	467	0	0	giraffe	675	158	1	stimuli\giraffe\giraffe_03s.jpg	2	-1	1	0	giraffe_03s.jpg	0	0.0	0	172.35299898794602	172.40299548929002	0.0499965013441397	151107
151.207	50	468	0	0	soldering_iron	1494	159	1	stimuli\soldering_iron\soldering_iron_12s.jpg	11	-1	1	0	soldering_iron_12s.jpg	0	0.0	0	172.45299345348	172.502996781477	0.0500033279968193	151207
151.307	50	469	0	0	flagpole	606	160	1	stimuli\flagpole\flagpole_07s.jpg	6	-1	1	0	flagpole_07s.jpg	0	0.0	0	172.55301303135602	172.603003681274	0.04999064991716299	151307
151.407	50	470	0	0	pogo_stick	1208	161	1	stimuli\pogo_stick\pogo_stick_12s.jpg	11	-1	1	0	pogo_stick_12s.jpg	0	0.0	0	172.65300432736697	172.703001803951	0.0499974765843945	151407
151.507	50	471	0	0	rhinoceros	1306	162	1	stimuli\rhinoceros\rhinoceros_10s.jpg	9	-1	1	0	rhinoceros_10s.jpg	0	0.0	0	172.753013421461	172.803003096138	0.0499896746769082	151507
151.607	50	472	0	0	timer	1661	163	1	stimuli\timer\timer_07s.jpg	6	-1	1	0	timer_07s.jpg	0	0.0	0	172.853030561251	172.90300877689202	0.0499782156402944	151607
151.707	50	473	0	0	fungus	648	164	1	stimuli\fungus\fungus_07s.jpg	6	-1	1	0	fungus_07s.jpg	0	0.0	0	172.953021369642	173.00301201955898	0.04999064991716299	151707
151.807	50	474	0	0	gas_mask	660	165	1	stimuli\gas_mask\gas_mask_01b.jpg	0	-1	1	0	gas_mask_01b.jpg	0	0.0	0	173.053016078979	173.103013555548	0.0499974765698425	151807
151.907	50	475	0	0	ham	739	166	1	stimuli\ham\ham_04s.jpg	3	-1	1	0	ham_04s.jpg	0	0.0	0	173.153017614968	173.20299704966598	0.0499794346978888	151907
152.007	50	476	0	0	kayak	863	167	1	stimuli\kayak\kayak_11s.jpg	10	-1	1	0	kayak_11s.jpg	0	0.0	0	173.25303816809898	173.303018090402	0.0499799223034643	152007
152.107	50	477	0	0	saddle	1343	168	1	stimuli\saddle\saddle_04s.jpg	3	-1	1	0	saddle_04s.jpg	0	0.0	0	173.35303824124298	173.403023039733	0.0499847984901862	152107
152.207	50	478	0	0	pearl	1134	169	1	stimuli\pearl\pearl_09s.jpg	8	-1	1	0	pearl_09s.jpg	0	0.0	0	173.453041727713	173.50302555096297	0.0499838232499314	152207
152.307	50	479	0	0	tape_measure	1623	170	1	stimuli\tape_measure\tape_measure_06s.jpg	5	-1	1	0	tape_measure_06s.jpg	0	0.0	0	173.553047164663	173.60302440506302	0.0499772404000396	152307
152.407	50	480	0	0	showerhead	1436	171	1	stimuli\showerhead\showerhead_08s.jpg	7	-1	1	0	showerhead_08s.jpg	0	0.0	0	173.653050163513	173.703025453447	0.049975289934082005	152407
152.507	50	481	0	0	altar	16	172	1	stimuli\altar\altar_06s.jpg	5	-1	1	0	altar_06s.jpg	0	0.0	0	173.75304974903702	173.80301528659803	0.049965537560638006	152507
152.607	50	482	0	0	margarita	973	173	1	stimuli\margarita\margarita_05s.jpg	4	-1	1	0	margarita_05s.jpg	0	0.0	0	173.853052747887	173.903034864474	0.0499821165867615	152607
152.707	50	483	0	0	pickle	1167	174	1	stimuli\pickle\pickle_08s.jpg	7	-1	1	0	pickle_08s.jpg	0	0.0	0	173.953054771511	174.003034449997	0.0499796784861246	152707
152.807	50	484	0	0	remote_control	1302	175	1	stimuli\remote_control\remote_control_12s.jpg	11	-1	1	0	remote_control_12s.jpg	0	0.0	0	174.053040216095	174.103037692665	0.0499974765698425	152807
152.907	50	485	0	0	snowplow	1484	176	1	stimuli\snowplow\snowplow_01b.jpg	0	-1	1	0	snowplow_01b.jpg	0	0.0	0	174.153057355885	174.203023137248	0.0499657813634258	152907
153.007	50	486	0	0	juice	854	177	1	stimuli\juice\juice_08s.jpg	7	-1	1	0	juice_08s.jpg	0	0.0	0	174.253061573778	174.303047347508	0.049985773730441	153007
153.107	50	487	0	0	biscuit	133	178	1	stimuli\biscuit\biscuit_03s.jpg	2	-1	1	0	biscuit_03s.jpg	0	0.0	0	174.35306432882498	174.403044251128	0.0499799223034643	153107
153.207	50	488	0	0	cigar	343	179	1	stimuli\cigar\cigar_09n.jpg	8	-1	1	0	cigar_09n.jpg	0	0.0	0	174.453066840069	174.50303091477002	0.0499640747002559	153207
153.307	50	489	0	0	lampshade	893	180	1	stimuli\lampshade\lampshade_02s.jpg	1	-1	1	0	lampshade_02s.jpg	0	0.0	0	174.55306886367902	174.60305122408298	0.0499823604041012	153307
153.407	50	490	0	0	cashew	281	181	1	stimuli\cashew\cashew_09s.jpg	8	-1	1	0	cashew_09s.jpg	0	0.0	0	174.653075519673	174.703053247693	0.049977728020167	153407
153.507	50	491	0	0	can_opener	251	182	1	stimuli\can_opener\can_opener_11s.jpg	10	-1	1	0	can_opener_11s.jpg	0	0.0	0	174.75306096425598	174.80305283321601	0.0499918689602055	153507
153.607	50	492	0	0	binoculars	127	183	1	stimuli\binoculars\binoculars_11n.jpg	10	-1	1	0	binoculars_11n.jpg	0	0.0	0	174.85308322404998	174.903060220648	0.0499769965972519	153607
153.707	50	493	0	0	raincoat	1279	184	1	stimuli\raincoat\raincoat_11s.jpg	10	-1	1	0	raincoat_11s.jpg	0	0.0	0	174.95307866481002	175.0030634633	0.0499847984901862	153707
153.807	50	494	0	0	boxer_shorts	182	185	1	stimuli\boxer_shorts\boxer_shorts_04s.jpg	3	-1	1	0	boxer_shorts_04s.jpg	0	0.0	0	175.053083857943	175.10306694977	0.0499830918270163	153807
153.907	50	495	0	0	bathrobe	90	186	1	stimuli\bathrobe\bathrobe_10s.jpg	9	-1	1	0	bathrobe_10s.jpg	0	0.0	0	175.153085881568	175.20306482863097	0.0499789470632095	153907
154.007	50	496	0	0	ready_meal	1292	187	1	stimuli\ready_meal\ready_meal_11s.jpg	10	-1	1	0	ready_meal_11s.jpg	0	0.0	0	175.253087417557	175.303068802721	0.0499813851638464	154007
154.107	50	497	0	0	hopscotch	796	188	1	stimuli\hopscotch\hopscotch_12s.jpg	11	-1	1	0	hopscotch_12s.jpg	0	0.0	0	175.353089197379	175.403075214912	0.0499860175332287	154107
154.207	50	498	0	0	potpourri	1235	189	1	stimuli\potpourri\potpourri_10s.jpg	9	-1	1	0	potpourri_10s.jpg	0	0.0	0	175.453091220988	175.50307528805598	0.0499840670672711	154207
154.307	50	499	0	0	paintbrush	1097	190	1	stimuli\paintbrush\paintbrush_11s.jpg	10	-1	1	0	paintbrush_11s.jpg	0	0.0	0	175.553093976036	175.60307828690603	0.0499843108700588	154307
154.407	50	500	0	0	lamb	889	191	1	stimuli\lamb\lamb_04s.jpg	3	-1	1	0	lamb_04s.jpg	0	0.0	0	175.65309892536598	175.703063243884	0.0499643185175955	154407
154.507	50	501	0	0	hairdryer	735	192	1	stimuli\hairdryer\hairdryer_12s.jpg	11	-1	1	0	hairdryer_12s.jpg	0	0.0	0	175.75308412613202	175.80306868082002	0.0499845546873985	154507
154.607	50	502	0	0	cheesecake	314	193	1	stimuli\cheesecake\cheesecake_06s.jpg	5	-1	1	0	cheesecake_06s.jpg	0	0.0	0	175.853107848787	175.90308777109	0.0499799223034643	154607
154.707	50	503	0	0	tag	1616	194	1	stimuli\tag\tag_08s.jpg	7	-1	1	0	tag_08s.jpg	0	0.0	0	175.953102801926	176.003086868994	0.0499840670672711	154707
154.807	50	504	0	0	sandbox	1354	195	1	stimuli\sandbox\sandbox_10s.jpg	9	-1	1	0	sandbox_10s.jpg	0	0.0	0	176.053090196991	176.103086210715	0.0499960137240123	154807
154.907	50	505	0	0	grapevine	704	196	1	stimuli\grapevine\grapevine_02s.jpg	1	-1	1	0	grapevine_02s.jpg	0	0.0	0	176.153110262487	176.203091403848	0.0499811413610587	154907
155.007	50	506	0	0	brace	186	197	1	stimuli\brace\brace_03s.jpg	2	-1	1	0	brace_03s.jpg	0	0.0	0	176.253112773731	176.303094646515	0.0499818727839738	155007
155.107	50	507	0	0	cat	284	198	1	stimuli\cat\cat_01b.jpg	0	-1	1	0	cat_01b.jpg	0	0.0	0	176.35311406591802	176.403097401548	0.0499833356298041	155107
155.207	50	508	0	0	bee	111	199	1	stimuli\bee\bee_10s.jpg	9	-1	1	0	bee_10s.jpg	0	0.0	0	176.453117308585	176.503098693749	0.0499813851638464	155207
155.307	50	509	0	0	tongue	1675	200	1	stimuli\tongue\tongue_02s.jpg	1	-1	1	0	tongue_02s.jpg	0	0.0	0	176.55311933219502	176.603106081166	0.0499867489706958	155307
155.407	50	510	0	0	octopus	1070	201	1	stimuli\octopus\octopus_09s.jpg	8	-1	1	0	octopus_09s.jpg	0	0.0	0	176.653124525328	176.703102009546	0.0499774842173792	155407
155.507	50	511	0	0	duster	534	202	1	stimuli\duster\duster_11s.jpg	10	-1	1	0	duster_11s.jpg	0	0.0	0	176.75311021372897	176.803089160807	0.0499789470777614	155507
155.607	50	512	0	0	nest	1056	203	1	stimuli\nest\nest_12s.jpg	11	-1	1	0	nest_12s.jpg	0	0.0	0	176.853127597336	176.903108251063	0.0499806537263794	155607
155.707	50	513	0	0	mushroom	1040	204	1	stimuli\mushroom\mushroom_08n.jpg	7	-1	1	0	mushroom_08n.jpg	0	0.0	0	176.953135228556	177.003116126099	0.049980897543719004	155707
155.807	50	514	0	0	bazooka	98	205	1	stimuli\bazooka\bazooka_12s.jpg	11	-1	1	0	bazooka_12s.jpg	0	0.0	0	177.05313822742	177.10311961257	0.0499813851492945	155807
155.907	50	515	0	0	latch	900	206	1	stimuli\latch\latch_09s.jpg	8	-1	1	0	latch_09s.jpg	0	0.0	0	177.15313976341	177.203118710488	0.0499789470777614	155907
156.007	50	516	0	0	stem	1547	207	1	stimuli\stem\stem_03s.jpg	2	-1	1	0	stem_03s.jpg	0	0.0	0	177.253139836554	177.303106836975	0.0499670004210202	156007
156.107	50	517	0	0	ball	59	208	1	stimuli\ball\ball_10s.jpg	9	-1	1	0	ball_10s.jpg	0	0.0	0	177.353140884938	177.40312227010102	0.0499813851638464	156107
156.207	50	518	0	0	cereal	297	209	1	stimuli\cereal\cereal_02s.jpg	1	-1	1	0	cereal_02s.jpg	0	0.0	0	177.45314485902801	177.503123806091	0.0499789470632095	156207
156.307	50	519	0	0	alpaca	15	210	1	stimuli\alpaca\alpaca_03s.jpg	2	-1	1	0	alpaca_03s.jpg	0	0.0	0	177.55314493217202	177.60313168112802	0.0499867489561439	156307
156.407	50	520	0	0	platypus	1198	211	1	stimuli\platypus\platypus_10n.jpg	9	-1	1	0	platypus_10n.jpg	0	0.0	0	177.653136715802	177.703130047608	0.0499933318060357	156407
156.507	50	521	0	0	laundry_basket	902	212	1	stimuli\laundry_basket\laundry_basket_12s.jpg	11	-1	1	0	laundry_basket_12s.jpg	0	0.0	0	177.753152880352	177.803133534078	0.0499806537263794	156507
156.607	50	522	0	0	meat	987	213	1	stimuli\meat\meat_04s.jpg	3	-1	1	0	meat_04s.jpg	0	0.0	0	177.85315441634202	177.90313677674598	0.0499823604041012	156607
156.707	50	523	0	0	crystal1	453	214	1	stimuli\crystal1\crystal1_10s.jpg	9	-1	1	0	crystal1_10s.jpg	0	0.0	0	177.953155952346	178.00313587464902	0.0499799223034643	156707
156.807	50	524	0	0	centerpiece	295	215	1	stimuli\centerpiece\centerpiece_05s.jpg	4	-1	1	0	centerpiece_05s.jpg	0	0.0	0	178.05315797597	178.103137166836	0.0499791908659972	156807
156.907	50	525	0	0	cilantro	347	216	1	stimuli\cilantro\cilantro_08s.jpg	7	-1	1	0	cilantro_08s.jpg	0	0.0	0	178.153162681483	178.203141140941	0.049978459457633996	156907
157.007	50	526	0	0	mulch	1038	217	1	stimuli\mulch\mulch_08s.jpg	7	-1	1	0	mulch_08s.jpg	0	0.0	0	178.253146907024	178.303130242653	0.0499833356298041	157007
157.108	50	527	0	0	racket	1270	218	1	stimuli\racket\racket_08s.jpg	7	-1	1	0	racket_08s.jpg	0	0.0	0	178.353169654423	178.40314640721803	0.0499767527944641	157108
157.208	50	528	0	0	turntable	1735	219	1	stimuli\turntable\turntable_10s.jpg	9	-1	1	0	turntable_10s.jpg	0	0.0	0	178.45317192185001	178.503165497474	0.0499935756233754	157208
157.308	50	529	0	0	wrap	1837	220	1	stimuli\wrap\wrap_08s.jpg	7	-1	1	0	wrap_08s.jpg	0	0.0	0	178.553169556908	178.603156062061	0.0499865051533561	157308
157.408	50	530	0	0	crown	448	221	1	stimuli\crown\crown_11s.jpg	10	-1	1	0	crown_11s.jpg	0	0.0	0	178.653173287181	178.703137849516	0.0499645623349352	157408
157.508	50	531	0	0	kimono	873	222	1	stimuli\kimono\kimono_10s.jpg	9	-1	1	1	kimono_10s.jpg	0	0.0	0	178.753159707005	178.803161572156	0.050001865150989006	157508
157.608	50	532	0	0	globe	679	223	1	stimuli\globe\globe_09s.jpg	8	-1	1	0	globe_09s.jpg	0	0.0	0	178.85316270586898	178.90316237672198	0.0499996708531398	157608
157.708	50	533	0	0	mole	1014	224	1	stimuli\mole\mole_10s.jpg	9	-1	1	0	mole_10s.jpg	0	0.0	0	178.953179601842	179.003161718429	0.0499821165867615	157708
157.808	50	534	0	0	wagon	1772	225	1	stimuli\wagon\wagon_06s.jpg	5	-1	1	0	wagon_06s.jpg	1	0.300200143028633	1	179.053186989258	179.10316739919702	0.0499804099381436	157808
157.908	50	535	0	0	camera2	247	226	1	stimuli\camera2\camera2_03s.jpg	2	-1	1	0	camera2_03s.jpg	0	0.0	0	179.15318535573897	179.20317064184897	0.0499852861103136	157908
158.008	50	536	0	0	parachute	1118	227	1	stimuli\parachute\parachute_01b.jpg	0	-1	1	0	parachute_01b.jpg	0	0.0	0	179.25319274317002	179.30315535501	0.0499626118398737	158008
158.108	50	537	0	0	coconut	375	228	1	stimuli\coconut\coconut_11s.jpg	10	-1	1	0	coconut_11s.jpg	0	0.0	0	179.353194522977	179.40317566432302	0.0499811413465068	158108
158.208	50	538	0	0	hydrant	814	229	1	stimuli\hydrant\hydrant_09s.jpg	8	-1	1	0	hydrant_09s.jpg	0	0.0	0	179.453191426597	179.503176712707	0.0499852861103136	158208
158.308	50	539	0	0	pillbox	1175	230	1	stimuli\pillbox\pillbox_03s.jpg	2	-1	1	0	pillbox_03s.jpg	0	0.0	0	179.553183941651	179.603180930601	0.0499969889497152	158308
158.408	50	540	0	0	ferry	580	231	1	stimuli\ferry\ferry_08s.jpg	7	-1	1	0	ferry_08s.jpg	0	0.0	0	179.65319913096002	179.703182710407	0.0499835794471437	158408
158.508	50	541	0	0	fruitcake	646	232	1	stimuli\fruitcake\fruitcake_07s.jpg	6	-1	1	0	fruitcake_07s.jpg	0	0.0	0	179.753203592671	179.803188391161	0.0499847984901862	158508
158.608	50	542	0	0	ratchet	1286	233	1	stimuli\ratchet\ratchet_04s.jpg	3	-1	1	0	ratchet_04s.jpg	0	0.0	0	179.85320659153498	179.90319212144797	0.0499855299131013	158608
158.708	50	543	0	0	wafer	1769	234	1	stimuli\wafer\wafer_09s.jpg	8	-1	1	0	wafer_09s.jpg	0	0.0	0	179.953207883722	180.00318683078498	0.0499789470632095	158708
158.808	50	544	0	0	enchilada	556	235	1	stimuli\enchilada\enchilada_12s.jpg	11	-1	1	0	enchilada_12s.jpg	0	0.0	0	180.053209663529	180.103193974399	0.0499843108700588	158808
158.908	50	545	0	0	chess_piece	317	236	1	stimuli\chess_piece\chess_piece_04s.jpg	3	-1	1	0	chess_piece_04s.jpg	0	0.0	0	180.15321168713902	180.203190878019	0.0499791908805491	158908
159.008	50	546	0	0	nightstand	1059	237	1	stimuli\nightstand\nightstand_11s.jpg	10	-1	1	0	nightstand_11s.jpg	0	0.0	0	180.253212735523	180.303198021633	0.0499852861103136	159008
159.108	50	547	0	0	ant	24	238	1	stimuli\ant\ant_04s.jpg	3	-1	1	0	ant_04s.jpg	0	0.0	0	180.35321549057	180.4031988262	0.0499833356298041	159108
159.208	50	548	0	0	tiramisu	1663	239	1	stimuli\tiramisu\tiramisu_03s.jpg	2	-1	1	0	tiramisu_03s.jpg	0	0.0	0	180.45320215419602	180.50321035838002	0.0500082041835412	159208
159.308	50	549	0	0	dryer	524	240	1	stimuli\dryer\dryer_05s.jpg	4	-1	1	0	dryer_05s.jpg	0	0.0	0	180.55321368637698	180.603203604871	0.0499899184942478	159308
159.408	50	550	0	0	straightjacket	1565	241	1	stimuli\straightjacket\straightjacket_05s.jpg	4	-1	1	0	straightjacket_05s.jpg	0	0.0	0	180.653223511894	180.70320416562	0.0499806537263794	159408
159.508	50	551	0	0	cello	292	242	1	stimuli\cello\cello_03s.jpg	2	-1	1	0	cello_03s.jpg	0	0.0	0	180.753208956477	180.80319936257703	0.0499904060998233	159508
159.608	50	552	0	0	humvee	813	243	1	stimuli\humvee\humvee_08s.jpg	7	-1	1	0	humvee_08s.jpg	0	0.0	0	180.853231460074	180.903209431912	0.0499779718375066	159608
159.708	50	553	0	0	fencepost	576	244	1	stimuli\fencepost\fencepost_01b.jpg	0	-1	1	0	fencepost_01b.jpg	0	0.0	0	180.953267860794	181.003213649805	0.0499457890109625	159708
159.808	50	554	0	0	recliner	1294	245	1	stimuli\recliner\recliner_04s.jpg	3	-1	1	0	recliner_04s.jpg	0	0.0	0	181.053240383495	181.10322054961603	0.0499801661208039	159808
159.908	50	555	0	0	blowtorch	148	246	1	stimuli\blowtorch\blowtorch_03s.jpg	2	-1	1	0	blowtorch_03s.jpg	0	0.0	0	181.153238993778	181.203218916082	0.0499799223034643	159908
160.008	50	556	0	0	satellite	1360	247	1	stimuli\satellite\satellite_04s.jpg	3	-1	1	0	satellite_04s.jpg	0	0.0	0	181.253238335499	181.303219476846	0.0499811413465068	160008
160.108	50	557	0	0	okra	1074	248	1	stimuli\okra\okra_05s.jpg	4	-1	1	0	okra_05s.jpg	0	0.0	0	181.353243041012	181.40322101285	0.0499779718375066	160108
160.208	50	558	0	0	towel_rack	1693	249	1	stimuli\towel_rack\towel_rack_09s.jpg	8	-1	1	0	towel_rack_09s.jpg	0	0.0	0	181.453249697006	181.50322498694	0.049975289934082005	160208
160.308	50	559	0	0	crystal2	454	250	1	stimuli\crystal2\crystal2_10s.jpg	9	-1	1	0	crystal2_10s.jpg	0	0.0	0	181.553252452053	181.603229692453	0.0499772404000396	160308
160.408	50	560	0	0	bed	108	251	1	stimuli\bed\bed_02s.jpg	1	-1	1	0	bed_02s.jpg	0	0.0	0	181.65325471948003	181.703227083693	0.0499723642133176	160408
160.508	50	561	0	0	rocket	1320	252	1	stimuli\rocket\rocket_11s.jpg	10	-1	1	1	rocket_11s.jpg	0	0.0	0	181.753256011667	181.80322837588002	0.0499723642133176	160508
160.608	50	562	0	0	rack2	1269	253	1	stimuli\rack2\rack2_09s.jpg	8	-1	1	0	rack2_09s.jpg	0	0.0	0	181.85325389052701	181.903230887125	0.0499769965972519	160608
160.708	50	563	0	0	grenade	713	254	1	stimuli\grenade\grenade_12s.jpg	11	-1	1	0	grenade_12s.jpg	0	0.0	0	181.953253963671	182.00323900596402	0.049985042292974007	160708
160.808	50	564	0	0	squash	1526	255	1	stimuli\squash\squash_07s.jpg	6	-1	1	0	squash_07s.jpg	1	0.34192590294696895	1	182.053261838708	182.103239322925	0.0499774842173792	160808
160.908	50	565	0	0	clove	365	256	1	stimuli\clove\clove_02s.jpg	1	-1	1	0	clove_02s.jpg	0	0.0	0	182.153260205188	182.203243053198	0.0499828480096767	160908
161.008	50	566	0	0	cookie_sheet	402	257	1	stimuli\cookie_sheet\cookie_sheet_02s.jpg	1	-1	1	0	cookie_sheet_02s.jpg	0	0.0	0	182.253262716418	182.30324751490798	0.0499847984901862	161008
161.108	50	567	0	0	button2	231	258	1	stimuli\button2\button2_02s.jpg	1	-1	1	0	button2_02s.jpg	0	0.0	0	182.35326425242198	182.40324295568297	0.0499787032604218	161108
161.208	50	568	0	0	bucket	209	259	1	stimuli\bucket\bucket_06n.jpg	5	-1	1	0	bucket_06n.jpg	0	0.0	0	182.45326700746998	182.503245466913	0.0499784594430821	161208
161.308	50	569	0	0	flamethrower	607	260	1	stimuli\flamethrower\flamethrower_11s.jpg	10	-1	1	0	flamethrower_11s.jpg	0	0.0	0	182.553269031079	182.60324773434	0.0499787032604218	161308
161.408	50	570	0	0	harmonica	753	261	1	stimuli\harmonica\harmonica_09s.jpg	8	-1	1	0	harmonica_09s.jpg	0	0.0	0	182.653270079463	182.70325317129	0.0499830918270163	161408
161.508	50	571	0	0	coffin	383	262	1	stimuli\coffin\coffin_08s.jpg	7	-1	1	0	coffin_08s.jpg	0	0.0	0	182.753278198303	182.80325641395802	0.0499782156548463	161508
161.608	50	572	0	0	syrup	1605	263	1	stimuli\syrup\syrup_11s.jpg	10	-1	1	0	syrup_11s.jpg	0	0.0	0	182.853278027644	182.903259412808	0.0499813851638464	161608
161.708	50	573	0	0	caramel	270	264	1	stimuli\caramel\caramel_08s.jpg	7	-1	1	0	caramel_08s.jpg	0	0.0	0	182.95327785696998	183.00325972975398	0.0499818727839738	161708
161.808	50	574	0	0	pipe1	1186	265	1	stimuli\pipe1\pipe1_07s.jpg	6	-1	1	0	pipe1_07s.jpg	0	0.0	0	183.05328353772302	183.103260046715	0.0499765089916764	161808
161.908	50	575	0	0	fishnet_stockings	604	266	1	stimuli\fishnet_stockings\fishnet_stockings_06s.jpg	5	-1	1	0	fishnet_stockings_06s.jpg	0	0.0	0	183.153291168957	183.20327011603501	0.0499789470777614	161908
162.008	50	576	0	0	ladle	887	267	1	stimuli\ladle\ladle_07s.jpg	6	-1	1	0	ladle_07s.jpg	0	0.0	0	183.25328660973202	183.30327628440898	0.0499896746769082	162008
162.108	50	577	0	0	cardigan	273	268	1	stimuli\cardigan\cardigan_12s.jpg	11	-1	1	0	cardigan_12s.jpg	0	0.0	0	183.353290340005	183.403275138495	0.0499847984901862	162108
162.208	50	578	0	0	petri_dish	1159	269	1	stimuli\petri_dish\petri_dish_03s.jpg	2	-1	1	0	petri_dish_03s.jpg	0	0.0	0	183.453289681725	183.50327350497503	0.0499838232499314	162208
162.308	50	579	0	0	skull	1458	270	1	stimuli\skull\skull_07s.jpg	6	-1	1	0	skull_07s.jpg	0	0.0	0	183.553294874859	183.603274065739	0.0499791908805491	162308
162.408	50	580	0	0	toe	1668	271	1	stimuli\toe\toe_11s.jpg	10	-1	1	0	toe_11s.jpg	0	0.0	0	183.65329007181597	183.70327877125197	0.0499886994366534	162408
162.508	50	581	0	0	axe	45	272	1	stimuli\axe\axe_08n.jpg	7	-1	1	0	axe_08n.jpg	0	0.0	0	183.753303798279	183.803279332016	0.0499755337368697	162508
162.608	50	582	0	0	cart	278	273	1	stimuli\cart\cart_02s.jpg	1	-1	1	0	cart_02s.jpg	0	0.0	0	183.853303383803	183.903283306106	0.0499799223034643	162608
162.708	50	583	0	0	net	1057	274	1	stimuli\net\net_09s.jpg	8	-1	1	0	net_09s.jpg	0	0.0	0	183.95330711409	184.00328557353401	0.0499784594430821	162708
162.808	50	584	0	0	barrette	77	275	1	stimuli\barrette\barrette_10s.jpg	9	-1	1	0	barrette_10s.jpg	0	0.0	0	184.05330743103698	184.103287840961	0.0499804099235917	162808
162.908	50	585	0	0	headlight	765	276	1	stimuli\headlight\headlight_01b.jpg	0	-1	1	0	headlight_01b.jpg	0	0.0	0	184.153311892747	184.20329108362802	0.0499791908805491	162908
163.008	50	586	0	0	kilt	872	277	1	stimuli\kilt\kilt_09s.jpg	8	-1	1	0	kilt_09s.jpg	0	0.0	0	184.25331367255401	184.303295545338	0.0499818727839738	163008
163.108	50	587	0	0	bottle	170	278	1	stimuli\bottle\bottle_12s.jpg	11	-1	1	0	bottle_12s.jpg	0	0.0	0	184.35331301427502	184.403296593722	0.0499835794471437	163108
163.208	50	588	0	0	trough	1718	279	1	stimuli\trough\trough_02s.jpg	1	-1	1	0	trough_02s.jpg	0	0.0	0	184.453316256928	184.50329837352902	0.0499821166013135	163208
163.308	50	589	0	0	traffic_light	1696	280	1	stimuli\traffic_light\traffic_light_01b.jpg	0	-1	1	0	traffic_light_01b.jpg	0	0.0	0	184.553321693878	184.603300153336	0.049978459457633996	163308
163.408	50	590	0	0	prism	1241	281	1	stimuli\prism\prism_06s.jpg	5	-1	1	0	prism_06s.jpg	0	0.0	0	184.65332225464198	184.703303883609	0.0499816289666342	163408
163.508	50	591	0	0	ravioli	1289	282	1	stimuli\ravioli\ravioli_04s.jpg	3	-1	1	0	ravioli_04s.jpg	0	0.0	0	184.75332500968898	184.803311758646	0.0499867489561439	163508
163.608	50	592	0	0	handlebar	749	283	1	stimuli\handlebar\handlebar_12s.jpg	11	-1	1	0	handlebar_12s.jpg	0	0.0	0	184.853332153303	184.903309149886	0.0499769965826999	163608
163.708	50	593	0	0	pennant	1148	284	1	stimuli\pennant\pennant_03s.jpg	2	-1	1	0	pennant_03s.jpg	1	0.0	0	184.953334176913	185.00331214875	0.0499779718375066	163708
163.808	50	594	0	0	yak	1845	285	1	stimuli\yak\yak_07s.jpg	6	-1	1	0	yak_07s.jpg	0	0.0	0	185.05333327481603	185.103312709514	0.0499794346978888	163808
163.908	50	595	0	0	log	943	286	1	stimuli\log\log_06s.jpg	5	-1	1	0	log_06s.jpg	0	0.0	0	185.153334079383	185.203316439787	0.0499823604041012	163908
164.008	50	596	0	0	stirrup	1558	287	1	stimuli\stirrup\stirrup_01b.jpg	0	-1	1	0	stirrup_01b.jpg	0	0.0	0	185.253339272531	185.30332090149798	0.0499816289666342	164008
164.108	50	597	0	0	megaphone	993	288	1	stimuli\megaphone\megaphone_04s.jpg	3	-1	1	0	megaphone_04s.jpg	0	0.0	0	185.35334105233798	185.40332121844398	0.049980166106252	164108
164.208	50	598	0	0	goalpost	683	289	1	stimuli\goalpost\goalpost_08s.jpg	7	-1	1	0	goalpost_08s.jpg	0	0.0	0	185.453346976894	185.50332714301499	0.0499801661208039	164208
164.308	50	599	0	0	spider	1513	290	1	stimuli\spider\spider_03s.jpg	2	-1	1	0	spider_03s.jpg	0	0.0	0	185.553348756701	185.603327216159	0.049978459457633996	164308
164.408	50	600	0	0	powder	1236	291	1	stimuli\powder\powder_06s.jpg	5	-1	1	0	powder_06s.jpg	0	0.0	0	185.65334907366199	185.703326801682	0.049977728020167	164408
164.508	50	601	0	0	spaghetti	1503	292	1	stimuli\spaghetti\spaghetti_10s.jpg	9	-1	1	0	spaghetti_10s.jpg	0	0.0	0	185.753356948699	185.80333199481498	0.0499750461167423	164508
164.608	50	602	0	0	sled	1460	293	1	stimuli\sled\sled_05s.jpg	4	-1	1	0	sled_05s.jpg	0	0.0	0	185.853355071362	185.903336700343	0.0499816289811861	164608
164.708	50	603	0	0	insole	831	294	1	stimuli\insole\insole_08s.jpg	7	-1	1	0	insole_08s.jpg	0	0.0	0	185.953359289269	186.00334189347598	0.0499826042068889	164708
164.808	50	604	0	0	quesadilla	1261	295	1	stimuli\quesadilla\quesadilla_04s.jpg	3	-1	1	0	quesadilla_04s.jpg	0	0.0	0	186.053360581456	186.10333806567402	0.0499774842173792	164808
164.908	50	605	0	0	ruby	1338	296	1	stimuli\ruby\ruby_03s.jpg	2	-1	1	0	ruby_03s.jpg	0	0.0	0	186.15335894793702	186.20333911404302	0.049980166106252	164908
165.008	50	606	0	0	pipe2	1187	297	1	stimuli\pipe2\pipe2_06s.jpg	5	-1	1	0	pipe2_06s.jpg	0	0.0	0	186.253364384873	186.303346013854	0.0499816289811861	165008
165.108	50	607	0	0	spark_plug	1506	298	1	stimuli\spark_plug\spark_plug_04s.jpg	3	-1	1	0	spark_plug_04s.jpg	0	0.0	0	186.35336494563703	186.403346086998	0.0499811413610587	165108
165.208	50	608	0	0	hanger	751	299	1	stimuli\hanger\hanger_09s.jpg	8	-1	1	0	hanger_09s.jpg	0	0.0	0	186.45337111401	186.503350792511	0.0499796785006765	165208
165.308	50	609	0	0	helicopter	775	300	1	stimuli\helicopter\helicopter_01b.jpg	0	-1	1	0	helicopter_01b.jpg	0	0.0	0	186.553372893817	186.60337890371702	0.050006009900244	165308
