onset	duration	eventnumber	blocksequencenumber	isteststim	object	objectnumber	presentationnumber	sequencenumber	stim	stimnumber	teststimnumber	withinsequencenumber	istarget	stimname	response	rt	correct	time_stimon	time_stimoff	stimdur	sample
156.16	50	0	0	0	jacket	836	0	0	stimuli\jacket\jacket_12s.jpg	11	-1	0	0	jacket_12s.jpg	1	0.0	0	198.15738366078602	198.207352904137	0.0499692433513701	156160
156.26	50	1	0	0	notepad	1065	1	0	stimuli\notepad\notepad_03s.jpg	2	-1	0	0	notepad_03s.jpg	0	0.0	0	198.257377248257	198.307353806216	0.0499765579588711	156260
156.36	50	2	0	0	pantsuit	1109	2	0	stimuli\pantsuit\pantsuit_10s.jpg	9	-1	0	0	pantsuit_10s.jpg	0	0.0	0	198.357378638349	198.40737079968702	0.0499921613372862	156360
156.46	50	3	0	0	showerhead	1436	3	0	stimuli\showerhead\showerhead_11s.jpg	10	-1	0	0	showerhead_11s.jpg	0	0.0	0	198.457385391928	198.507374383509	0.0499889915809035	156460
156.56	50	4	0	0	vise	1765	4	0	stimuli\vise\vise_06s.jpg	5	-1	0	0	vise_06s.jpg	0	0.0	0	198.55739507079102	198.607375042047	0.0499799712561071	156560
156.66	50	5	0	0	cake_mix	238	5	0	stimuli\cake_mix\cake_mix_06s.jpg	5	-1	0	0	cake_mix_06s.jpg	0	0.0	0	198.657402555924	198.708007167093	0.0506046111695468	156660
156.76	50	6	0	0	clothes	361	6	0	stimuli\clothes\clothes_07s.jpg	6	-1	0	0	clothes_07s.jpg	0	0.0	0	198.757384196855	198.80736758140802	0.0499833845533431	156760
156.86	50	7	0	0	highchair	777	7	0	stimuli\highchair\highchair_06s.jpg	5	-1	0	0	highchair_06s.jpg	0	0.0	0	198.85738826869098	198.90738969482499	0.0500014261342585	156860
156.96	50	8	0	0	cupcake	461	8	0	stimuli\cupcake\cupcake_06s.jpg	5	-1	0	0	cupcake_06s.jpg	0	0.0	0	198.957407943904	199.007387427613	0.0499794837087393	156960
157.06	50	9	0	0	fire_pit	593	9	0	stimuli\fire_pit\fire_pit_02s.jpg	1	-1	0	0	fire_pit_02s.jpg	0	0.0	0	199.05739275459203	199.107375407591	0.0499826529994607	157060
157.16	50	10	0	0	ball	59	10	0	stimuli\ball\ball_10s.jpg	9	-1	0	0	ball_10s.jpg	0	0.0	0	199.157413892914	199.207378747873	0.0499648549593985	157160
157.26	50	11	0	0	cup	460	11	0	stimuli\cup\cup_01s.jpg	0	-1	0	0	cup_01s.jpg	0	0.0	0	199.25742405979	199.307423048187	0.0499989883974195	157260
157.36	50	12	0	0	yogurt	1848	12	0	stimuli\yogurt\yogurt_06s.jpg	5	-1	0	0	yogurt_06s.jpg	0	0.0	0	199.357422280125	199.407386891078	0.04996461095288401	157360
157.46	50	13	0	0	photograph	1164	13	0	stimuli\photograph\photograph_02s.jpg	1	-1	0	0	photograph_02s.jpg	0	0.0	0	199.457415380049	199.50740364100798	0.0499882609583437	157460
157.56	50	14	0	0	amber	18	14	0	stimuli\amber\amber_11s.jpg	10	-1	0	0	amber_11s.jpg	0	0.0	0	199.55741969589099	199.60739991068803	0.0499802147969604	157560
157.66	50	15	0	0	brush	205	15	0	stimuli\brush\brush_08s.jpg	7	-1	0	0	brush_08s.jpg	0	0.0	0	199.657425717916	199.70733669074298	0.0499109728261828	157660
157.76	50	16	0	0	chest2	320	16	0	stimuli\chest2\chest2_08s.jpg	7	-1	0	0	chest2_08s.jpg	0	0.0	0	199.75742491334702	199.80740342149502	0.0499785081483424	157760
157.86	50	17	0	0	sunroof	1586	17	0	stimuli\sunroof\sunroof_09s.jpg	8	-1	0	0	sunroof_09s.jpg	0	0.0	0	199.857426546514	199.90736263198798	0.0499360854737461	157860
157.96	50	18	0	0	navel	1052	18	0	stimuli\navel\navel_06s.jpg	5	-1	0	0	navel_06s.jpg	0	0.0	0	199.95743208099202	200.007414977998	0.0499828970059752	157960
158.06	50	19	0	0	shaving_cream	1410	19	0	stimuli\shaving_cream\shaving_cream_10s.jpg	9	-1	0	0	shaving_cream_10s.jpg	0	0.0	0	200.05743273953	200.10740954102903	0.0499768014997244	158060
158.16	50	20	0	0	flute	620	20	0	stimuli\flute\flute_02s.jpg	1	-1	0	0	flute_02s.jpg	0	0.0	0	200.157436079811	200.207415807061	0.0499797272495925	158160
158.26	50	21	0	0	shield	1420	21	0	stimuli\shield\shield_01b.jpg	0	-1	0	0	shield_01b.jpg	0	0.0	0	200.25744137028198	200.307427193038	0.0499858227558434	158260
158.36	50	22	0	0	red_carpet	1298	22	0	stimuli\red_carpet\red_carpet_02s.jpg	1	-1	0	0	red_carpet_02s.jpg	0	0.0	0	200.357440565713	200.407421024516	0.0499804588034749	158360
158.46	50	23	0	0	helicopter	775	23	0	stimuli\helicopter\helicopter_06s.jpg	5	-1	0	0	helicopter_06s.jpg	0	0.0	0	200.45744488108897	200.507431922946	0.0499870418570936	158460
158.56	50	24	0	0	poker	1210	24	0	stimuli\poker\poker_09s.jpg	8	-1	0	0	poker_09s.jpg	0	0.0	0	200.557448952924	200.607430630364	0.0499816774390638	158560
158.66	50	25	0	0	ink	829	25	0	stimuli\ink\ink_10s.jpg	9	-1	0	0	ink_10s.jpg	0	0.0	0	200.65744887990897	200.707432020456	0.0499831405468285	158660
158.76	50	26	0	0	straw1	1568	26	0	stimuli\straw1\straw1_02s.jpg	1	-1	0	0	straw1_02s.jpg	0	0.0	0	200.757451976184	200.807431459427	0.04997948324307799	158760
158.86	50	27	0	0	sheet	1415	27	0	stimuli\sheet\sheet_01b.jpg	0	-1	0	0	sheet_01b.jpg	0	0.0	0	200.85745653510102	200.90743626235098	0.0499797272495925	158860
158.96	50	28	0	0	scallion	1372	28	0	stimuli\scallion\scallion_11s.jpg	10	-1	0	0	scallion_11s.jpg	0	0.0	0	200.957458168734	201.00743009429402	0.049971925560384996	158960
159.06	50	29	0	0	gear	667	29	0	stimuli\gear\gear_05s.jpg	4	-1	0	0	gear_05s.jpg	0	0.0	0	201.057458583266	201.10743879806301	0.0499802147969604	159060
159.16	50	30	0	0	hair	733	30	0	stimuli\hair\hair_11s.jpg	10	-1	0	0	hair_11s.jpg	0	0.0	0	201.157462898642	201.207441650797	0.0499787521548569	159160
159.26	50	31	0	0	boa	150	31	0	stimuli\boa\boa_09s.jpg	8	-1	0	0	boa_09s.jpg	0	0.0	0	201.257462825626	201.307444503531	0.0499816779047251	159260
159.36	50	32	0	0	goose	693	32	0	stimuli\goose\goose_12s.jpg	11	-1	0	0	goose_12s.jpg	0	0.0	0	201.35746762854998	201.40745076909698	0.0499831405468285	159360
159.46	50	33	0	0	tuba	1723	33	0	stimuli\tuba\tuba_11s.jpg	10	-1	0	0	tuba_11s.jpg	0	0.0	0	201.45747267548	201.507451427635	0.0499787521548569	159460
159.56	50	34	0	0	ferris_wheel	579	34	0	stimuli\ferris_wheel\ferris_wheel_03s.jpg	2	-1	0	0	ferris_wheel_03s.jpg	0	0.0	0	201.557470651809	201.60745281726102	0.0499821654520929	159560
159.66	50	35	0	0	quilt	1264	35	0	stimuli\quilt\quilt_10s.jpg	9	-1	0	0	quilt_10s.jpg	0	0.0	0	201.657476917841	201.707457132638	0.0499802147969604	159660
159.76	50	36	0	0	chickpea	325	36	0	stimuli\chickpea\chickpea_12s.jpg	11	-1	0	0	chickpea_12s.jpg	0	0.0	0	201.75747781992	201.80746047291902	0.0499826529994607	159760
159.86	50	37	0	0	butterfly	229	37	0	stimuli\butterfly\butterfly_11s.jpg	10	-1	0	0	butterfly_11s.jpg	0	0.0	0	201.85747872199903	201.90746064344398	0.0499819214455783	159860
159.96	50	38	0	0	nail	1046	38	0	stimuli\nail\nail_12s.jpg	11	-1	0	0	nail_12s.jpg	0	0.0	0	201.957482793368	202.00746788457002	0.04998509120196099	159960
160.06	50	39	0	0	block	143	39	0	stimuli\block\block_08s.jpg	7	-1	0	0	block_08s.jpg	0	0.0	0	202.057488571852	202.107468543109	0.0499799712561071	160060
160.16	50	40	0	0	pocket	1205	40	0	stimuli\pocket\pocket_04s.jpg	3	-1	0	0	pocket_04s.jpg	0	0.0	0	202.15749191213402	202.207471639384	0.0499797272495925	160160
160.26	50	41	0	0	brass_knuckles	193	41	0	stimuli\brass_knuckles\brass_knuckles_10s.jpg	9	-1	0	0	brass_knuckles_10s.jpg	0	0.0	0	202.257497446612	202.30746961571302	0.0499721691012383	160260
160.36	50	42	0	0	elbow	552	42	0	stimuli\elbow\elbow_03s.jpg	2	-1	0	0	elbow_03s.jpg	0	0.0	0	202.357493716292	202.407474662643	0.0499809463508427	160360
160.46	50	43	0	0	fruit	645	43	0	stimuli\fruit\fruit_04s.jpg	3	-1	0	0	fruit_04s.jpg	0	0.0	0	202.457494862378	202.507481659763	0.0499867973849177	160460
160.56	50	44	0	0	bun	220	44	0	stimuli\bun\bun_12s.jpg	11	-1	0	0	bun_12s.jpg	0	0.0	0	202.557499421295	202.607477441896	0.0499780206009746	160560
160.66	50	45	0	0	raisin	1280	45	0	stimuli\raisin\raisin_07s.jpg	6	-1	0	0	raisin_07s.jpg	0	0.0	0	202.657503005583	202.70748468302202	0.0499816774390638	160660
160.76	50	46	0	0	torch	1683	46	0	stimuli\torch\torch_06s.jpg	5	-1	0	0	torch_06s.jpg	0	0.0	0	202.757527800743	202.807490461506	0.0499626607634127	160760
160.86	50	47	0	0	yacht	1844	47	0	stimuli\yacht\yacht_06s.jpg	5	-1	0	0	yacht_06s.jpg	0	0.0	0	202.857511636335	202.90748795028802	0.0499763139523566	160860
160.96	50	48	0	0	barbed_wire	71	48	0	stimuli\barbed_wire\barbed_wire_04s.jpg	3	-1	0	0	barbed_wire_04s.jpg	0	0.0	0	202.957511319313	203.007493728306	0.0499824089929461	160960
161.06	50	49	0	0	grass	705	49	0	stimuli\grass\grass_05s.jpg	4	-1	0	0	grass_05s.jpg	0	0.0	0	203.057514659595	203.10749463038502	0.0499799707904458	161060
161.16	50	50	0	0	honeypot	790	50	0	stimuli\honeypot\honeypot_12s.jpg	11	-1	0	0	honeypot_12s.jpg	0	0.0	0	203.157518974971	203.20749650802503	0.0499775330536067	161160
161.26	50	51	0	0	breadstick	196	51	0	stimuli\breadstick\breadstick_12s.jpg	11	-1	0	0	breadstick_12s.jpg	0	0.0	0	203.257516463753	203.307498385198	0.0499819214455783	161260
161.36	50	52	0	0	marshmallow	977	52	0	stimuli\marshmallow\marshmallow_03s.jpg	2	-1	0	0	marshmallow_03s.jpg	0	0.0	0	203.35752053512297	203.40750050637902	0.0499799712561071	161360
161.46	50	53	0	0	marker	975	53	0	stimuli\marker\marker_12s.jpg	11	-1	0	0	marker_12s.jpg	0	0.0	0	203.457522900309	203.507502627559	0.0499797272495925	161460
161.56	50	54	0	0	combination_lock	390	54	0	stimuli\combination_lock\combination_lock_07s.jpg	6	-1	0	0	combination_lock_07s.jpg	0	0.0	0	203.55753160407798	203.60750889358997	0.0499772895127535	161560
161.66	50	55	0	0	coleslaw	386	55	0	stimuli\coleslaw\coleslaw_06s.jpg	5	-1	0	0	coleslaw_06s.jpg	0	0.0	0	203.657534700818	203.707508089021	0.0499733882024884	161660
161.76	50	56	0	0	cape	266	56	0	stimuli\cape\cape_04s.jpg	3	-1	0	0	cape_04s.jpg	0	0.0	0	203.75753121404	203.807513379492	0.0499821654520929	161760
161.86	50	57	0	0	duffel_bag	529	57	0	stimuli\duffel_bag\duffel_bag_11s.jpg	10	-1	0	0	duffel_bag_11s.jpg	0	0.0	0	203.85753284767299	203.907517694868	0.0499848471954465	161860
161.96	50	58	0	0	squirt_gun	1530	58	0	stimuli\squirt_gun\squirt_gun_10s.jpg	9	-1	0	0	squirt_gun_10s.jpg	0	0.0	0	203.957536187954	204.007516646758	0.0499804588034749	161960
162.06	50	59	0	0	doorbell	507	59	0	stimuli\doorbell\doorbell_07s.jpg	6	-1	0	0	doorbell_07s.jpg	0	0.0	0	204.05753830913503	204.10752047412103	0.0499821649864316	162060
162.16	50	60	0	0	swab	1590	60	0	stimuli\swab\swab_03s.jpg	2	-1	0	0	swab_03s.jpg	0	0.0	0	204.157538967207	204.20752259530101	0.0499836280941963	162160
162.26	50	61	0	0	bead	100	61	0	stimuli\bead\bead_10s.jpg	9	-1	0	0	bead_10s.jpg	0	0.0	0	204.257543770131	204.30752666713698	0.0499828970059752	162260
162.36	50	62	0	0	bat2	88	62	0	stimuli\bat2\bat2_12s.jpg	11	-1	0	0	bat2_12s.jpg	0	0.0	0	204.35754467221	204.407527813222	0.0499831410124898	162360
162.46	50	63	0	0	scissors	1379	63	0	stimuli\scissors\scissors_11s.jpg	10	-1	0	0	scissors_11s.jpg	0	0.0	0	204.45754996314602	204.507529690396	0.0499797272495925	162460
162.56	50	64	0	0	tomato	1672	64	0	stimuli\tomato\tomato_12s.jpg	11	-1	0	0	tomato_12s.jpg	0	0.0	0	204.557552571874	204.607536443975	0.0499838721007109	162560
162.66	50	65	0	0	scuba	1392	65	0	stimuli\scuba\scuba_12s.jpg	11	-1	0	0	scuba_12s.jpg	0	0.0	0	204.657555912156	204.70753978425597	0.0499838721007109	162660
162.76	50	66	0	0	lampshade	893	66	0	stimuli\lampshade\lampshade_06s.jpg	5	-1	0	0	lampshade_06s.jpg	0	0.0	0	204.757556570228	204.80753580993	0.0499792397022247	162760
162.86	50	67	0	0	ski_boots	1453	67	0	stimuli\ski_boots\ski_boots_11s.jpg	10	-1	0	0	ski_boots_11s.jpg	0	0.0	0	204.857560398057	204.907541100401	0.0499807023443282	162860
162.96	50	68	0	0	barrette	77	68	0	stimuli\barrette\barrette_08s.jpg	7	-1	0	0	barrette_08s.jpg	0	0.0	0	204.957566908095	205.007546147332	0.0499792392365634	162960
163.06	50	69	0	0	speedometer	1512	69	0	stimuli\speedometer\speedometer_06s.jpg	5	-1	0	1	speedometer_06s.jpg	0	0.0	0	205.057565615512	205.107544611674	0.0499789961613715	163060
163.16	50	70	0	0	sledgehammer	1461	70	0	stimuli\sledgehammer\sledgehammer_01b.jpg	0	-1	0	0	sledgehammer_01b.jpg	0	0.0	0	205.15757090644902	205.20755087723998	0.0499799707904458	163160
163.26	50	71	0	0	shirt	1422	71	0	stimuli\shirt\shirt_10s.jpg	9	-1	0	0	shirt_10s.jpg	0	0.0	0	205.25757180852798	205.307551535778	0.0499797272495925	163260
163.36	50	72	0	0	speaker	1509	72	0	stimuli\speaker\speaker_02s.jpg	1	-1	0	0	speaker_02s.jpg	0	0.0	0	205.357572954148	205.407553900499	0.0499809463508427	163360
163.46	50	73	0	0	tupperware	1729	73	0	stimuli\tupperware\tupperware_09s.jpg	8	-1	0	0	tupperware_09s.jpg	1	0.392193659208715	1	205.457576050889	205.507555534132	0.04997948324307799	163460
163.56	50	74	0	0	ruby	1338	74	0	stimuli\ruby\ruby_10s.jpg	9	-1	0	0	ruby_10s.jpg	0	0.0	0	205.557579390705	205.607561312616	0.0499819219112396	163560
163.66	50	75	0	0	timer	1661	75	0	stimuli\timer\timer_12s.jpg	11	-1	0	0	timer_12s.jpg	0	0.0	0	205.657594189979	205.707562214695	0.0499680247157812	163660
163.76	50	76	0	0	ginger	673	76	0	stimuli\ginger\ginger_01b.jpg	0	-1	0	0	ginger_01b.jpg	0	0.0	0	205.757584608626	205.80757043091597	0.0499858222901821	163760
163.86	50	77	0	0	hash	756	77	0	stimuli\hash\hash_01b.jpg	0	-1	0	0	hash_01b.jpg	0	0.0	0	205.857588679995	205.90756670059602	0.0499780206009746	163860
163.96	50	78	0	0	train_set	1700	78	0	stimuli\train_set\train_set_08s.jpg	7	-1	0	0	train_set_08s.jpg	0	0.0	0	205.957589094527	206.007570528425	0.0499814338982105	163960
164.06	50	79	0	0	manatee	964	79	0	stimuli\manatee\manatee_01b.jpg	0	-1	0	0	manatee_01b.jpg	0	0.0	0	206.05759462900502	206.10757240559897	0.049977776594460004	164060
164.16	50	80	0	0	razor_blade	1291	80	0	stimuli\razor_blade\razor_blade_06s.jpg	5	-1	0	0	razor_blade_06s.jpg	0	0.0	0	206.15759479953	206.207575014327	0.0499802147969604	164160
164.26	50	81	0	0	lightning_bug	929	81	0	stimuli\lightning_bug\lightning_bug_10s.jpg	9	-1	0	0	lightning_bug_10s.jpg	0	0.0	0	206.25760301621602	206.307578598615	0.0499755823984742	164260
164.36	50	82	0	0	pogo_stick	1208	82	0	stimuli\pogo_stick\pogo_stick_08s.jpg	7	-1	0	0	pogo_stick_08s.jpg	0	0.0	0	206.357600504998	206.40758462064	0.0499841156415641	164360
164.46	50	83	0	0	tennis_ball	1642	83	0	stimuli\tennis_ball\tennis_ball_07s.jpg	6	-1	0	0	tennis_ball_07s.jpg	0	0.0	0	206.457604088821	206.50758479116502	0.0499807023443282	164460
164.56	50	84	0	0	panties	1107	84	0	stimuli\panties\panties_02s.jpg	1	-1	0	0	panties_02s.jpg	0	0.0	0	206.557607672643	206.607587399893	0.0499797272495925	164560
164.66	50	85	0	0	charger	308	85	0	stimuli\charger\charger_01b.jpg	0	-1	0	0	charger_01b.jpg	0	0.0	0	206.657608818728	206.70759171526902	0.04998289654031401	164660
164.76	50	86	0	0	defibrillator	477	86	0	stimuli\defibrillator\defibrillator_05s.jpg	4	-1	0	0	defibrillator_05s.jpg	0	0.0	0	206.75760972080798	206.80758944805697	0.0499797272495925	164760
164.86	50	87	0	0	meatloaf	990	87	0	stimuli\meatloaf\meatloaf_10s.jpg	9	-1	0	0	meatloaf_10s.jpg	0	0.0	0	206.857614523731	206.907595957629	0.0499814338982105	164860
164.96	50	88	0	0	lion	933	88	0	stimuli\lion\lion_02s.jpg	1	-1	0	0	lion_02s.jpg	0	0.0	0	206.95761908311403	207.007598566357	0.04997948324307799	164960
165.06	50	89	0	0	tarantula	1626	89	0	stimuli\tarantula\tarantula_05s.jpg	4	-1	0	0	tarantula_05s.jpg	0	0.0	0	207.057619497646	207.107599712443	0.0499802147969604	165060
165.16	50	90	0	0	spatula	1508	90	0	stimuli\spatula\spatula_04s.jpg	3	-1	0	0	spatula_04s.jpg	0	0.0	0	207.15762600721803	207.20760378427798	0.0499777770601213	165160
165.26	50	91	0	0	seaweed	1400	91	0	stimuli\seaweed\seaweed_11s.jpg	10	-1	0	0	seaweed_11s.jpg	0	0.0	0	207.25762764085098	207.307609562296	0.0499819214455783	165260
165.36	50	92	0	0	grater	708	92	0	stimuli\grater\grater_08s.jpg	7	-1	0	0	grater_08s.jpg	0	0.0	0	207.357632443774	207.407609732822	0.0499772890470922	165360
165.46	50	93	0	0	quiche	1262	93	0	stimuli\quiche\quiche_01b.jpg	0	-1	0	0	quiche_01b.jpg	0	0.0	0	207.45763115165798	207.507611366455	0.0499802147969604	165460
165.56	50	94	0	0	tooth	1678	94	0	stimuli\tooth\tooth_03s.jpg	2	-1	0	0	tooth_03s.jpg	0	0.0	0	207.55763473548	207.60761446273	0.0499797272495925	165560
165.66	50	95	0	0	trowel	1719	95	0	stimuli\trowel\trowel_05s.jpg	4	-1	0	0	trowel_05s.jpg	0	0.0	0	207.65763368737	207.707615852822	0.0499821654520929	165660
165.76	50	96	0	0	spear	1510	96	0	stimuli\spear\spear_01s.jpg	0	-1	0	0	spear_01s.jpg	0	0.0	0	207.757637758739	207.807620655745	0.0499828970059752	165760
165.86	50	97	0	0	bathmat	89	97	0	stimuli\bathmat\bathmat_10s.jpg	9	-1	0	0	bathmat_10s.jpg	0	0.0	0	207.857645487878	207.90762472711498	0.0499792392365634	165860
165.96	50	98	0	0	face	569	98	0	stimuli\face\face_06s.jpg	5	-1	0	0	face_06s.jpg	0	0.0	0	207.957645901944	208.007624654099	0.0499787521548569	165960
166.06	50	99	0	0	chicken1	322	99	0	stimuli\chicken1\chicken1_08s.jpg	7	-1	0	0	chicken1_08s.jpg	0	0.0	0	208.057645585388	208.10762531263802	0.0499797272495925	166060
166.16	50	100	0	0	ambulance	19	100	0	stimuli\ambulance\ambulance_06s.jpg	5	-1	0	0	ambulance_06s.jpg	0	0.0	0	208.157648681663	208.207597688772	0.0499490071088076	166160
166.26	50	101	0	0	cucumber	457	101	0	stimuli\cucumber\cucumber_10s.jpg	9	-1	0	0	cucumber_10s.jpg	0	0.0	0	208.257651533931	208.30763345584302	0.0499819219112396	166260
166.36	50	102	0	0	appetizer	29	102	0	stimuli\appetizer\appetizer_01b.jpg	0	-1	0	0	appetizer_01b.jpg	0	0.0	0	208.357653411571	208.407635820564	0.0499824089929461	166360
166.46	50	103	0	0	pipe2	1187	103	0	stimuli\pipe2\pipe2_08s.jpg	7	-1	0	0	pipe2_08s.jpg	0	0.0	0	208.45766333444	208.507639160845	0.0499758264049888	166460
166.56	50	104	0	0	statue	1543	104	0	stimuli\statue\statue_08s.jpg	7	-1	0	0	statue_08s.jpg	0	0.0	0	208.557660823222	208.607644695323	0.0499838721007109	166560
166.66	50	105	0	0	powder	1236	105	0	stimuli\powder\powder_08s.jpg	7	-1	0	0	powder_08s.jpg	0	0.0	0	208.657661969308	208.707641696557	0.0499797272495925	166660
166.76	50	106	0	0	roller	1324	106	0	stimuli\roller\roller_10s.jpg	9	-1	0	0	roller_10s.jpg	0	0.0	0	208.75766457803502	208.807643573731	0.0499789956957102	166760
166.86	50	107	0	0	peeler	1138	107	0	stimuli\peeler\peeler_09s.jpg	8	-1	0	0	peeler_09s.jpg	0	0.0	0	208.857666211668	208.907647645567	0.0499814338982105	166860
166.96	50	108	0	0	paper	1112	108	0	stimuli\paper\paper_07s.jpg	6	-1	0	0	paper_07s.jpg	0	0.0	0	208.957668088842	209.00765342358503	0.0499853347428143	166960
167.06	50	109	0	0	fencepost	576	109	0	stimuli\fencepost\fencepost_11s.jpg	10	-1	0	0	fencepost_11s.jpg	0	0.0	0	209.057678987272	209.10765456967098	0.0499755823984742	167060
167.16	50	110	0	0	gyro	730	110	0	stimuli\gyro\gyro_12s.jpg	11	-1	0	0	gyro_12s.jpg	0	0.0	0	209.157677451149	209.20765693439202	0.04997948324307799	167160
167.26	50	111	0	0	perfume	1154	111	0	stimuli\perfume\perfume_02s.jpg	1	-1	0	0	perfume_02s.jpg	0	0.0	0	209.25767957232898	209.30765661737	0.0499770450405777	167260
167.36	50	112	0	0	cord	407	112	0	stimuli\cord\cord_03s.jpg	2	-1	0	0	cord_03s.jpg	0	0.0	0	209.357679742854	209.40766263986	0.0499828970059752	167360
167.46	50	113	0	0	inhaler	828	113	0	stimuli\inhaler\inhaler_04s.jpg	3	-1	0	0	inhaler_04s.jpg	0	0.0	0	209.457689178176	209.507664517034	0.04997533885762099	167460
167.56	50	114	0	0	butter	228	114	0	stimuli\butter\butter_01b.jpg	0	-1	0	0	butter_01b.jpg	0	0.0	0	209.55769373755902	209.607666394208	0.0499726566486061	167560
167.66	50	115	0	0	ham	739	115	0	stimuli\ham\ham_08s.jpg	7	-1	0	0	ham_08s.jpg	0	0.0	0	209.65769049478698	209.70767095358997	0.0499804588034749	167660
167.76	50	116	0	0	gourd	696	116	0	stimuli\gourd\gourd_09s.jpg	8	-1	0	0	gourd_09s.jpg	0	0.0	0	209.757694566622	209.807671611663	0.0499770450405777	167760
167.86	50	117	0	0	button1	230	117	0	stimuli\button1\button1_10s.jpg	9	-1	0	0	button1_10s.jpg	0	0.0	0	209.85769473714802	209.907675927505	0.0499811903573573	167860
167.96	50	118	0	0	trombone	1716	118	0	stimuli\trombone\trombone_02s.jpg	1	-1	0	0	trombone_02s.jpg	0	0.0	0	209.957699784078	210.007680486422	0.0499807023443282	167960
168.06	50	119	0	0	cufflink	458	119	0	stimuli\cufflink\cufflink_06s.jpg	5	-1	0	0	cufflink_06s.jpg	0	0.0	0	210.05769946705502	210.107686508447	0.0499870413914323	168060
168.16	50	120	0	0	projector	1242	120	0	stimuli\projector\projector_08s.jpg	7	-1	0	0	projector_08s.jpg	0	0.0	0	210.15770183224203	210.20768277812698	0.0499809458851814	168160
168.26	50	121	0	0	slingshot	1467	121	0	stimuli\slingshot\slingshot_02s.jpg	1	-1	0	0	slingshot_02s.jpg	0	0.0	0	210.25770444097	210.30768441176002	0.0499799707904458	168260
168.36	50	122	0	0	berry	121	122	0	stimuli\berry\berry_07s.jpg	6	-1	0	0	berry_07s.jpg	0	0.0	0	210.35770826879903	210.40768677694697	0.0499785081483424	168360
168.46	50	123	0	0	ladle	887	123	0	stimuli\ladle\ladle_04s.jpg	3	-1	0	1	ladle_04s.jpg	0	0.0	0	210.457709658425	210.50768841011399	0.0499787516891956	168460
168.56	50	124	0	0	stir_fry	1557	124	0	stimuli\stir_fry\stir_fry_11s.jpg	10	-1	0	0	stir_fry_11s.jpg	0	0.0	0	210.55771251069402	210.60769687034198	0.0499843596480787	168560
168.66	50	125	0	0	bazooka	98	125	0	stimuli\bazooka\bazooka_12s.jpg	11	-1	0	0	bazooka_12s.jpg	0	0.0	0	210.657715850975	210.707698016427	0.0499821654520929	168660
168.76	50	126	0	0	scorpion	1384	126	0	stimuli\scorpion\scorpion_03n.jpg	2	-1	0	0	scorpion_03n.jpg	1	0.30458169244229805	1	210.757720897906	210.80769843095902	0.0499775330536067	168760
168.86	50	127	0	0	rag	1276	127	0	stimuli\rag\rag_08s.jpg	7	-1	0	0	rag_08s.jpg	0	0.0	0	210.857721068431	210.907700552139	0.0499794837087393	168860
168.96	50	128	0	0	map	970	128	0	stimuli\map\map_11s.jpg	10	-1	0	0	map_11s.jpg	0	0.0	0	210.957721239422	211.00770949991403	0.0499882604926825	168960
169.06	50	129	0	0	can	250	129	0	stimuli\can\can_04s.jpg	3	-1	0	0	can_04s.jpg	0	0.0	0	211.05772555479803	211.107708207797	0.0499826529994607	169060
169.16	50	130	0	0	cello	292	130	0	stimuli\cello\cello_01s.jpg	0	-1	0	0	cello_01s.jpg	0	0.0	0	211.157725725323	211.207711060066	0.0499853347428143	169160
169.26	50	131	0	0	coal	367	131	0	stimuli\coal\coal_05s.jpg	4	-1	0	0	coal_05s.jpg	0	0.0	0	211.25773467309799	211.307712450158	0.0499777770601213	169260
169.36	50	132	0	0	road_sign	1315	132	0	stimuli\road_sign\road_sign_07s.jpg	6	-1	0	0	road_sign_07s.jpg	0	0.0	0	211.35772533528498	211.40771993482497	0.0499945995397866	169360
169.46	50	133	0	0	spareribs	1505	133	0	stimuli\spareribs\spareribs_10s.jpg	9	-1	0	0	spareribs_10s.jpg	0	0.0	0	211.45773720881002	211.507716448512	0.0499792397022247	169460
169.56	50	134	0	0	tricycle	1711	134	0	stimuli\tricycle\tricycle_01b.jpg	0	-1	0	0	tricycle_01b.jpg	0	0.0	0	211.557741768192	211.60769687034198	0.0499551021493971	169560
169.66	50	135	0	0	album	11	135	0	stimuli\album\album_08s.jpg	7	-1	0	0	album_08s.jpg	0	0.0	0	211.657743157819	211.707728736568	0.0499855787493289	169660
169.76	50	136	0	0	rack2	1269	136	0	stimuli\rack2\rack2_09s.jpg	8	-1	0	0	rack2_09s.jpg	0	0.0	0	211.75774552253998	211.807725737337	0.0499802147969604	169760
169.86	50	137	0	0	rooster	1330	137	0	stimuli\rooster\rooster_02s.jpg	1	-1	0	0	rooster_02s.jpg	0	0.0	0	211.857750081923	211.907726883423	0.0499768014997244	169860
169.96	50	138	0	0	fishbowl	601	138	0	stimuli\fishbowl\fishbowl_07s.jpg	6	-1	0	0	fishbowl_07s.jpg	0	0.0	0	211.957750739995	212.007731198799	0.0499804588034749	169960
170.06	50	139	0	0	rocking_chair	1321	139	0	stimuli\rocking_chair\rocking_chair_11s.jpg	10	-1	0	0	rocking_chair_11s.jpg	0	0.0	0	212.057755786926	212.107732832432	0.0499770455062389	170060
170.16	50	140	0	0	birdbath	129	140	0	stimuli\birdbath\birdbath_05s.jpg	4	-1	0	0	birdbath_05s.jpg	0	0.0	0	212.157761077862	212.207737147808	0.049976069945842	170160
170.26	50	141	0	0	engine	557	141	0	stimuli\engine\engine_08s.jpg	7	-1	0	0	engine_08s.jpg	0	0.0	0	212.257757591084	212.307741707191	0.0499841161072254	170260
170.36	50	142	0	0	board	152	142	0	stimuli\board\board_08s.jpg	7	-1	0	0	board_08s.jpg	0	0.0	0	212.35776166291902	212.40774285281103	0.049981189891696	170360
170.46	50	143	0	0	almond	13	143	0	stimuli\almond\almond_10s.jpg	9	-1	0	0	almond_10s.jpg	0	0.0	0	212.45776207745098	212.507742779795	0.0499807023443282	170460
170.56	50	144	0	0	lamp	891	144	0	stimuli\lamp\lamp_12s.jpg	11	-1	0	0	lamp_12s.jpg	0	0.0	0	212.557765661273	212.60774880181998	0.0499831405468285	170560
170.66	50	145	0	0	espresso	560	145	0	stimuli\espresso\espresso_10s.jpg	9	-1	0	0	espresso_10s.jpg	0	0.0	0	212.657766807359	212.707750191446	0.0499833840876818	170660
170.76	50	146	0	0	clove	365	146	0	stimuli\clove\clove_04s.jpg	3	-1	0	0	clove_04s.jpg	0	0.0	0	212.75777551112702	212.80775353172797	0.0499780206009746	170760
170.86	50	147	0	0	shark	1409	147	0	stimuli\shark\shark_12s.jpg	11	-1	0	0	shark_12s.jpg	0	0.0	0	212.85779104195498	212.90775516536098	0.0499641234055161	170860
170.96	50	148	0	0	oil	1072	148	0	stimuli\oil\oil_08s.jpg	7	-1	0	0	oil_08s.jpg	0	0.0	0	212.957776096184	213.007757530548	0.0499814343638718	170960
171.06	50	149	0	0	ramp	1283	149	0	stimuli\ramp\ramp_04s.jpg	3	-1	0	0	ramp_04s.jpg	0	0.0	0	213.05778138711997	213.10775989526903	0.0499785081483424	171060
171.16	50	150	0	0	screen2	1389	150	0	stimuli\screen2\screen2_11s.jpg	10	-1	0	0	screen2_11s.jpg	0	0.0	0	213.157782045193	213.207760797348	0.0499787521548569	171160
171.26	50	151	0	0	computer	394	151	0	stimuli\computer\computer_01b.jpg	0	-1	0	0	computer_01b.jpg	0	0.0	0	213.25778441038003	213.307770476677	0.0499860662966967	171260
171.36	50	152	0	0	trampoline	1701	152	0	stimuli\trampoline\trampoline_01b.jpg	0	-1	0	0	trampoline_01b.jpg	0	0.0	0	213.357790432405	213.407768940553	0.0499785081483424	171360
171.46	50	153	0	0	bikini	124	153	0	stimuli\bikini\bikini_08s.jpg	7	-1	0	0	bikini_08s.jpg	0	0.0	0	213.45779230957902	213.50777081772702	0.0499785081483424	171460
171.56	50	154	0	0	fast_food	572	154	0	stimuli\fast_food\fast_food_01b.jpg	0	-1	0	0	fast_food_01b.jpg	0	0.0	0	213.55779296811698	213.60777342692	0.0499804588034749	171560
171.66	50	155	0	0	meatball	989	155	0	stimuli\meatball\meatball_12s.jpg	11	-1	0	0	meatball_12s.jpg	0	0.0	0	213.657797283493	213.707784568891	0.0499872853979468	171660
171.76	50	156	0	0	eagle	537	156	0	stimuli\eagle\eagle_05s.jpg	4	-1	0	0	eagle_05s.jpg	0	0.0	0	213.757802330423	213.807785226963	0.04998289654031401	171760
171.86	50	157	0	0	birthday_cake	132	157	0	stimuli\birthday_cake\birthday_cake_07s.jpg	6	-1	0	0	birthday_cake_07s.jpg	0	0.0	0	213.857801769394	213.907781009097	0.0499792397022247	171860
171.96	50	158	0	0	nail_polish	1049	158	0	stimuli\nail_polish\nail_polish_02s.jpg	1	-1	0	0	nail_polish_02s.jpg	0	0.0	0	213.95780267147302	214.00778361782397	0.0499809463508427	171960
172.06	50	159	0	0	staple_gun	1538	159	0	stimuli\staple_gun\staple_gun_11s.jpg	10	-1	0	0	staple_gun_11s.jpg	0	0.0	0	214.057805768214	214.107785739005	0.0499799707904458	172060
172.16	50	160	0	0	tadpole	1614	160	0	stimuli\tadpole\tadpole_03s.jpg	2	-1	0	0	tadpole_03s.jpg	0	0.0	0	214.15781788528	214.20778883527998	0.0499709499999881	172160
172.26	50	161	0	0	possum	1228	161	0	stimuli\possum\possum_12s.jpg	11	-1	0	0	possum_12s.jpg	0	0.0	0	214.257812448312	214.307794369757	0.0499819214455783	172260
172.36	50	162	0	0	giraffe	675	162	0	stimuli\giraffe\giraffe_05s.jpg	4	-1	0	0	giraffe_05s.jpg	0	0.0	0	214.35781603259997	214.407793809194	0.049977776594460004	172360
172.46	50	163	0	0	parachute	1118	163	0	stimuli\parachute\parachute_04s.jpg	3	-1	0	0	parachute_04s.jpg	0	0.0	0	214.457814984024	214.507798612118	0.0499836280941963	172460
172.56	50	164	0	0	teacup	1633	164	0	stimuli\teacup\teacup_09s.jpg	8	-1	0	0	teacup_09s.jpg	0	0.0	0	214.557818567846	214.607800977305	0.0499824094586074	172560
172.66	50	165	0	0	microphone	998	165	0	stimuli\microphone\microphone_03s.jpg	2	-1	0	0	microphone_03s.jpg	0	0.0	0	214.65781873883702	214.707802854478	0.0499841156415641	172660
172.76	50	166	0	0	biscuit	133	166	0	stimuli\biscuit\biscuit_09s.jpg	8	-1	0	0	biscuit_09s.jpg	0	0.0	0	214.757825735956	214.807804000564	0.0499782646074891	172760
172.86	50	167	0	0	fig	581	167	0	stimuli\fig\fig_12s.jpg	11	-1	0	0	fig_12s.jpg	0	0.0	0	214.85782688204202	214.90780709683898	0.0499802147969604	172860
172.96	50	168	0	0	mirror	1005	168	0	stimuli\mirror\mirror_12s.jpg	11	-1	0	0	mirror_12s.jpg	0	0.0	0	214.957837780006	215.007815800607	0.0499780206009746	172960
173.06	50	169	0	0	flip_flop	614	169	0	stimuli\flip_flop\flip_flop_03s.jpg	2	-1	0	0	flip_flop_03s.jpg	0	0.0	0	215.057831855491	215.10781280184202	0.0499809463508427	173060
173.16	50	170	0	0	icemaker	821	170	0	stimuli\icemaker\icemaker_07s.jpg	6	-1	0	0	icemaker_07s.jpg	0	0.0	0	215.15783470822498	215.207814679481	0.0499799712561071	173160
173.26	50	171	0	0	iguana	825	171	0	stimuli\iguana\iguana_11s.jpg	10	-1	0	0	iguana_11s.jpg	0	0.0	0	215.257836829405	215.30781875085097	0.0499819214455783	173260
173.36	50	172	0	0	flour	618	172	0	stimuli\flour\flour_11s.jpg	10	-1	0	0	flour_11s.jpg	0	0.0	0	215.357843095437	215.40782550443	0.0499824089929461	173360
173.46	50	173	0	0	parking_meter	1120	173	0	stimuli\parking_meter\parking_meter_06s.jpg	5	-1	0	0	parking_meter_06s.jpg	0	0.0	0	215.457843509968	215.50782860070498	0.0499850907362998	173460
173.56	50	174	0	0	license_plate	921	174	0	stimuli\license_plate\license_plate_07s.jpg	6	-1	0	0	license_plate_07s.jpg	0	0.0	0	215.557850019541	215.60782877123	0.0499787516891956	173560
173.66	50	175	0	0	blueberry	149	175	0	stimuli\blueberry\blueberry_06n.jpg	5	-1	0	0	blueberry_06n.jpg	0	0.0	0	215.657848970965	215.707829429768	0.0499804588034749	173660
173.76	50	176	0	0	fur_coat	650	176	0	stimuli\fur_coat\fur_coat_05s.jpg	4	-1	0	0	fur_coat_05s.jpg	0	0.0	0	215.75785279879298	215.807834476698	0.0499816779047251	173760
173.86	50	177	0	0	drawer	516	177	0	stimuli\drawer\drawer_09s.jpg	8	-1	0	0	drawer_09s.jpg	0	0.0	0	215.857852969319	215.907839035615	0.0499860662966967	173860
173.96	50	178	0	0	car_seat	269	178	0	stimuli\car_seat\car_seat_07s.jpg	6	-1	0	0	car_seat_07s.jpg	0	0.0	0	215.95785752870097	216.00784237589698	0.0499848471954465	173960
174.06	50	179	0	0	card	271	179	0	stimuli\card\card_10s.jpg	9	-1	0	0	card_10s.jpg	0	0.0	0	216.057864526287	216.107840108685	0.0499755823984742	174060
174.16	50	180	0	0	sail	1346	180	0	stimuli\sail\sail_01b.jpg	0	-1	0	0	sail_01b.jpg	0	0.0	0	216.15786884166303	216.20784271741297	0.0499738757498562	174160
174.26	50	181	0	0	tongs	1674	181	0	stimuli\tongs\tongs_04s.jpg	3	-1	0	0	tongs_04s.jpg	0	0.0	0	216.25786437979	216.307843375485	0.0499789956957102	174260
174.36	50	182	0	0	vent	1758	182	0	stimuli\vent\vent_05s.jpg	4	-1	0	0	vent_05s.jpg	0	0.0	0	216.357870889362	216.407849885523	0.0499789961613715	174360
174.46	50	183	0	0	lavender	904	183	0	stimuli\lavender\lavender_11s.jpg	10	-1	0	0	lavender_11s.jpg	0	0.0	0	216.457871303894	216.50785151869098	0.0499802147969604	174460
174.56	50	184	0	0	hula_hoop	810	184	0	stimuli\hula_hoop\hula_hoop_02s.jpg	1	-1	0	0	hula_hoop_02s.jpg	0	0.0	0	216.557870743331	216.607853883877	0.0499831405468285	174560
174.66	50	185	0	0	rosary	1333	185	0	stimuli\rosary\rosary_01b.jpg	0	-1	0	0	rosary_01b.jpg	0	0.0	0	216.657863843255	216.70785551750998	0.0499916742555797	174660
174.76	50	186	0	0	grasshopper	706	186	0	stimuli\grasshopper\grasshopper_11s.jpg	10	-1	0	0	grasshopper_11s.jpg	0	0.0	0	216.75787986163002	216.80785666313	0.0499768014997244	174760
174.86	50	187	0	0	lectern	908	187	0	stimuli\lectern\lectern_10s.jpg	9	-1	0	0	lectern_10s.jpg	0	0.0	0	216.85788100771597	216.90786292916198	0.0499819214455783	174860
174.96	50	188	0	0	boulder	172	188	0	stimuli\boulder\boulder_03s.jpg	2	-1	0	1	boulder_03s.jpg	0	0.0	0	216.957884835545	217.007868463639	0.0499836280941963	174960
175.06	50	189	0	0	exerciser	561	189	0	stimuli\exerciser\exerciser_02s.jpg	1	-1	0	0	exerciser_02s.jpg	0	0.0	0	217.05788549361802	217.10786887817102	0.0499833845533431	175060
175.16	50	190	0	0	pincushion	1179	190	0	stimuli\pincushion\pincushion_06s.jpg	5	-1	0	0	pincushion_06s.jpg	0	0.0	0	217.157889077906	217.207867829595	0.0499787516891956	175160
175.26	50	191	0	0	subway	1578	191	0	stimuli\subway\subway_04s.jpg	3	-1	0	0	subway_04s.jpg	0	0.0	0	217.257890467532	217.30787141388302	0.0499809463508427	175260
175.36	50	192	0	0	cardigan	273	192	0	stimuli\cardigan\cardigan_08s.jpg	7	-1	0	0	cardigan_08s.jpg	1	0.40241147065535204	1	217.357892832253	217.40787694836	0.0499841161072254	175360
175.46	50	193	0	0	face_mask	570	193	0	stimuli\face_mask\face_mask_01b.jpg	0	-1	0	0	face_mask_01b.jpg	0	0.0	0	217.457897391636	217.507874193136	0.0499768014997244	175460
175.56	50	194	0	0	squeegee	1527	194	0	stimuli\squeegee\squeegee_05s.jpg	4	-1	0	0	squeegee_05s.jpg	0	0.0	0	217.55790585186298	217.607882653363	0.0499768014997244	175560
175.66	50	195	0	0	oyster	1092	195	0	stimuli\oyster\oyster_03n.jpg	2	-1	0	0	oyster_03n.jpg	0	0.0	0	217.657905778848	217.707885262091	0.04997948324307799	175660
175.76	50	196	0	0	mousse	1030	196	0	stimuli\mousse\mousse_11s.jpg	10	-1	0	0	mousse_11s.jpg	0	0.0	0	217.75790936266998	217.80788543261602	0.049976069945842	175760
175.86	50	197	0	0	hammer	741	197	0	stimuli\hammer\hammer_10s.jpg	9	-1	0	0	hammer_10s.jpg	0	0.0	0	217.857910020743	217.90789413685002	0.0499841161072254	175860
175.96	50	198	0	0	doghouse	497	198	0	stimuli\doghouse\doghouse_01b.jpg	0	-1	0	0	doghouse_01b.jpg	0	0.0	0	217.957911654375	218.00789138162497	0.0499797272495925	175960
176.06	50	199	0	0	banner	70	199	0	stimuli\banner\banner_05s.jpg	4	-1	0	0	banner_05s.jpg	0	0.0	0	218.057914263103	218.107895697001	0.0499814338982105	176060
176.16	50	200	0	0	yolk	1850	200	0	stimuli\yolk\yolk_01b.jpg	0	-1	0	0	yolk_01b.jpg	0	0.0	0	218.157913946081	218.207897574641	0.0499836285598576	176160
176.26	50	201	0	0	deodorant	479	201	0	stimuli\deodorant\deodorant_11s.jpg	10	-1	0	0	deodorant_11s.jpg	0	0.0	0	218.257922650315	218.307898232713	0.0499755823984742	176260
176.36	50	202	0	0	penholder	1146	202	0	stimuli\penholder\penholder_08s.jpg	7	-1	0	0	penholder_08s.jpg	0	0.0	0	218.35791989509	218.40789962233998	0.0499797272495925	176360
176.46	50	203	0	0	tostada	1688	203	0	stimuli\tostada\tostada_11s.jpg	10	-1	0	0	tostada_11s.jpg	0	0.0	0	218.457921285182	218.507906375919	0.0499850907362998	176460
176.56	50	204	0	0	vest	1759	204	0	stimuli\vest\vest_08s.jpg	7	-1	0	0	vest_08s.jpg	0	0.0	0	218.557927307207	218.60791093530102	0.0499836280941963	176560
176.66	50	205	0	0	mouthpiece	1032	205	0	stimuli\mouthpiece\mouthpiece_05s.jpg	4	-1	0	0	mouthpiece_05s.jpg	0	0.0	0	218.657931866124	218.707907204982	0.04997533885762099	176660
176.76	50	206	0	0	enchilada	556	206	0	stimuli\enchilada\enchilada_04s.jpg	3	-1	0	0	enchilada_04s.jpg	0	0.0	0	218.757930574007	218.807913471013	0.0499828970059752	176760
176.86	50	207	0	0	jelly_bean	844	207	0	stimuli\jelly_bean\jelly_bean_07s.jpg	6	-1	0	0	jelly_bean_07s.jpg	0	0.0	0	218.857933182735	218.90791681129502	0.0499836285598576	176860
176.96	50	208	0	0	shell1	1417	208	0	stimuli\shell1\shell1_01b.jpg	0	-1	0	0	shell1_01b.jpg	0	0.0	0	218.957936767023	219.007915518712	0.0499787516891956	176960
177.06	50	209	0	0	catapult	285	209	0	stimuli\catapult\catapult_12s.jpg	11	-1	0	0	catapult_12s.jpg	0	0.0	0	219.057940594852	219.10792080964902	0.0499802147969604	177060
177.16	50	210	0	0	light_switch	926	210	0	stimuli\light_switch\light_switch_02s.jpg	1	-1	0	0	light_switch_02s.jpg	0	0.0	0	219.157945885323	219.207924393471	0.0499785081483424	177160
177.26	50	211	0	0	doorstop	512	211	0	stimuli\doorstop\doorstop_07s.jpg	6	-1	0	0	doorstop_07s.jpg	0	0.0	0	219.257947762497	219.30792822130002	0.0499804588034749	177260
177.36	50	212	0	0	tongue	1675	212	0	stimuli\tongue\tongue_02s.jpg	1	-1	0	0	tongue_02s.jpg	0	0.0	0	219.357948908582	219.40792814828498	0.0499792397022247	177360
177.46	50	213	0	0	dartboard	474	213	0	stimuli\dartboard\dartboard_11s.jpg	10	-1	0	0	dartboard_11s.jpg	0	0.0	0	219.45795444306	219.50793148856602	0.0499770455062389	177460
177.56	50	214	0	0	popcorn	1223	214	0	stimuli\popcorn\popcorn_03s.jpg	2	-1	0	0	popcorn_03s.jpg	0	0.0	0	219.557952906936	219.60793385328702	0.0499809463508427	177560
177.66	50	215	0	0	handlebar	749	215	0	stimuli\handlebar\handlebar_07s.jpg	6	-1	0	0	handlebar_07s.jpg	0	0.0	0	219.657956247218	219.707939387765	0.0499831405468285	177660
177.76	50	216	0	0	orangutan	1080	216	0	stimuli\orangutan\orangutan_10s.jpg	9	-1	0	0	orangutan_10s.jpg	0	0.0	0	219.757959343493	219.80794370314098	0.0499843596480787	177760
177.86	50	217	0	0	button2	231	217	0	stimuli\button2\button2_08s.jpg	7	-1	0	0	button2_08s.jpg	0	0.0	0	219.85795927047698	219.907940948382	0.0499816779047251	177860
177.96	50	218	0	0	gallows	653	218	0	stimuli\gallows\gallows_06s.jpg	5	-1	0	0	gallows_06s.jpg	0	0.0	0	219.957961635664	220.007943313103	0.0499816774390638	177960
178.06	50	219	0	0	gazelle	666	219	0	stimuli\gazelle\gazelle_06s.jpg	5	-1	0	0	gazelle_06s.jpg	0	0.0	0	220.05796448793302	220.107951773331	0.0499872853979468	178060
178.16	50	220	0	0	mongoose	1016	220	0	stimuli\mongoose\mongoose_05s.jpg	4	-1	0	0	mongoose_05s.jpg	0	0.0	0	220.157971241511	220.20795170031502	0.0499804588034749	178160
178.26	50	221	0	0	cereal	297	221	0	stimuli\cereal\cereal_07s.jpg	6	-1	0	0	cereal_07s.jpg	0	0.0	0	220.257976531982	220.307958453894	0.0499819219112396	178260
178.36	50	222	0	0	aircraft_carrier	9	222	0	stimuli\aircraft_carrier\aircraft_carrier_10s.jpg	9	-1	0	0	aircraft_carrier_10s.jpg	0	0.0	0	220.357974020764	220.407954236027	0.0499802152626216	178360
178.46	50	223	0	0	bone	161	223	0	stimuli\bone\bone_10s.jpg	9	-1	0	0	bone_10s.jpg	0	0.0	0	220.457977605052	220.50795635674098	0.0499787516891956	178460
178.56	50	224	0	0	inkwell	830	224	0	stimuli\inkwell\inkwell_12s.jpg	11	-1	0	1	inkwell_12s.jpg	0	0.0	0	220.557978507131	220.607964085881	0.0499855787493289	178560
178.66	50	225	0	0	refrigerator	1300	225	0	stimuli\refrigerator\refrigerator_11s.jpg	10	-1	0	0	refrigerator_11s.jpg	0	0.0	0	220.65798696735902	220.707965719048	0.0499787516891956	178660
178.76	50	226	0	0	seatbelt	1399	226	0	stimuli\seatbelt\seatbelt_09s.jpg	8	-1	0	0	seatbelt_09s.jpg	0	0.0	0	220.75798762543099	220.807963695843	0.0499760704115033	178760
178.86	50	227	0	0	shears	1412	227	0	stimuli\shears\shears_04s.jpg	3	-1	0	0	shears_04s.jpg	1	0.300186782609671	1	220.857989015058	220.907988735009	0.0499997199513018	178860
178.96	50	228	0	0	icicle	824	228	0	stimuli\icicle\icicle_03s.jpg	2	-1	0	0	icicle_03s.jpg	0	0.0	0	220.95799357444	221.007957454305	0.0499638798646629	178960
179.06	50	229	0	0	hobbyhorse	782	229	0	stimuli\hobbyhorse\hobbyhorse_10s.jpg	9	-1	0	0	hobbyhorse_10s.jpg	0	0.0	0	221.057997402269	221.107975666877	0.0499782646074891	179060
179.16	50	230	0	0	pin	1177	230	0	stimuli\pin\pin_05s.jpg	4	-1	0	0	pin_05s.jpg	0	0.0	0	221.157982944511	221.20797437429403	0.0499914297834039	179160
179.26	50	231	0	0	record	1295	231	0	stimuli\record\record_04s.jpg	3	-1	0	0	record_04s.jpg	0	0.0	0	221.25800164462999	221.307985272724	0.0499836280941963	179260
179.36	50	232	0	0	spout	1520	232	0	stimuli\spout\spout_10s.jpg	9	-1	0	0	spout_10s.jpg	0	0.0	0	221.357988649514	221.407986906357	0.0499982568435371	179360
179.46	50	233	0	0	sewing_kit	1406	233	0	stimuli\sewing_kit\sewing_kit_11s.jpg	10	-1	0	0	sewing_kit_11s.jpg	0	0.0	0	221.458006130531	221.50797269213902	0.0499665616080165	179460
179.56	50	234	0	0	mullet	1039	234	0	stimuli\mullet\mullet_07s.jpg	6	-1	0	0	mullet_07s.jpg	0	0.0	0	221.55800752015801	221.60798602877202	0.0499785086140037	179560
179.66	50	235	0	0	letter_opener	919	235	0	stimuli\letter_opener\letter_opener_03s.jpg	2	-1	0	0	letter_opener_03s.jpg	0	0.0	0	221.658010372892	221.70800180314097	0.0499914302490652	179660
179.76	50	236	0	0	crucifix	449	236	0	stimuli\crucifix\crucifix_11s.jpg	10	-1	0	0	crucifix_11s.jpg	0	0.0	0	221.758012494072	221.807992465328	0.0499799712561071	179760
179.86	50	237	0	0	crumb	451	237	0	stimuli\crumb\crumb_05s.jpg	4	-1	0	0	crumb_05s.jpg	0	0.0	0	221.858014859259	221.907998730894	0.0499838716350496	179860
179.96	50	238	0	0	wrap	1837	238	0	stimuli\wrap\wrap_12s.jpg	11	-1	0	0	wrap_12s.jpg	0	0.0	0	221.95801771152802	222.007998657878	0.0499809463508427	179960
180.06	50	239	0	0	shelf	1416	239	0	stimuli\shelf\shelf_11s.jpg	10	-1	0	0	shelf_11s.jpg	0	0.0	0	222.05802056426202	222.108000047505	0.04997948324307799	180060
180.16	50	240	0	0	chalk	302	240	0	stimuli\chalk\chalk_12s.jpg	11	-1	0	0	chalk_12s.jpg	0	0.0	0	222.15802024724	222.208003631793	0.0499833845533431	180160
180.26	50	241	0	0	spark_plug	1506	241	0	stimuli\spark_plug\spark_plug_12s.jpg	11	-1	0	0	spark_plug_12s.jpg	0	0.0	0	222.25802748836603	222.308018431067	0.0499909427016973	180260
180.36	50	242	0	0	airplane	10	242	0	stimuli\airplane\airplane_04n.jpg	3	-1	0	0	airplane_04n.jpg	0	0.0	0	222.35802887799198	222.408007630147	0.0499787521548569	180360
180.46	50	243	0	0	goalpost	683	243	0	stimuli\goalpost\goalpost_10s.jpg	9	-1	0	0	goalpost_10s.jpg	0	0.0	0	222.458029780071	222.508008776233	0.0499789961613715	180460
180.56	50	244	0	0	fountain_pen	637	244	0	stimuli\fountain_pen\fountain_pen_01b.jpg	0	-1	0	0	fountain_pen_01b.jpg	0	0.0	0	222.55803263280498	222.608014798257	0.0499821654520929	180560
180.66	50	245	0	0	anvil	28	245	0	stimuli\anvil\anvil_01b.jpg	0	-1	0	0	anvil_01b.jpg	0	0.0	0	222.658035241533	222.70801545633	0.0499802147969604	180660
180.76	50	246	0	0	paintbrush	1097	246	0	stimuli\paintbrush\paintbrush_07s.jpg	6	-1	0	0	paintbrush_07s.jpg	0	0.0	0	222.758039313368	222.808019040152	0.0499797267839313	180760
180.86	50	247	0	0	shopping_basket	1427	247	0	stimuli\shopping_basket\shopping_basket_12s.jpg	11	-1	0	0	shopping_basket_12s.jpg	0	0.0	0	222.85804606648202	222.908023843542	0.0499777770601213	180860
180.96	50	248	0	0	crate	433	248	0	stimuli\crate\crate_11s.jpg	10	-1	0	0	crate_11s.jpg	0	0.0	0	222.95804160507402	223.00802547717498	0.0499838721007109	180960
181.06	50	249	0	0	prune	1244	249	0	stimuli\prune\prune_10s.jpg	9	-1	0	0	prune_10s.jpg	0	0.0	0	223.0580488462	223.108026866801	0.0499780206009746	181060
181.16	50	250	0	0	canvas	264	250	0	stimuli\canvas\canvas_05s.jpg	4	-1	0	0	canvas_05s.jpg	0	0.0	0	223.158049748279	223.20803045062303	0.0499807023443282	181160
181.26	50	251	0	0	christmas_tree	341	251	0	stimuli\christmas_tree\christmas_tree_07s.jpg	6	-1	0	0	christmas_tree_07s.jpg	0	0.0	0	223.258052844554	223.308030133601	0.0499772890470922	181260
181.36	50	252	0	0	coil	384	252	0	stimuli\coil\coil_10s.jpg	9	-1	0	0	coil_10s.jpg	0	0.0	0	223.358054965734	223.408039081376	0.0499841156415641	181360
181.46	50	253	0	0	paper_bag	1113	253	0	stimuli\paper_bag\paper_bag_10s.jpg	9	-1	0	0	paper_bag_10s.jpg	0	0.0	0	223.458057574462	223.508063145448	0.0500055709853768	181460
181.56	50	254	0	0	applesauce	32	254	0	stimuli\applesauce\applesauce_06s.jpg	5	-1	0	0	applesauce_06s.jpg	0	0.0	0	223.55804726155498	223.60804186109502	0.0499945995397866	181560
181.66	50	255	0	0	bologna	158	255	0	stimuli\bologna\bologna_04s.jpg	3	-1	0	0	bologna_04s.jpg	0	0.0	0	223.658062060364	223.708040568978	0.0499785086140037	181660
181.76	50	256	0	0	camera2	247	256	0	stimuli\camera2\camera2_11s.jpg	10	-1	0	0	camera2_11s.jpg	0	0.0	0	223.75806661974602	223.808060975745	0.0499943559989333	181760
181.86	50	257	0	0	bread	194	257	0	stimuli\bread\bread_08s.jpg	7	-1	0	0	bread_08s.jpg	0	0.0	0	223.85806800937303	223.90804993081798	0.0499819214455783	181860
181.96	50	258	0	0	hot-air_balloon	801	258	0	stimuli\hot-air_balloon\hot-air_balloon_05s.jpg	4	-1	0	0	hot-air_balloon_05s.jpg	0	0.0	0	223.95807037456	224.008054002654	0.0499836280941963	181960
182.06	50	259	0	0	tie	1658	259	0	stimuli\tie\tie_09s.jpg	8	-1	0	1	tie_09s.jpg	0	0.0	0	224.05807298328702	224.108055879828	0.04998289654031401	182060
182.16	50	260	0	0	mouse1	1026	260	0	stimuli\mouse1\mouse1_09s.jpg	8	-1	0	0	mouse1_09s.jpg	0	0.0	0	224.15807705465699	224.20806043921002	0.0499833845533431	182160
182.26	50	261	0	0	beanie	104	261	0	stimuli\beanie\beanie_02s.jpg	1	-1	0	0	beanie_02s.jpg	0	0.0	0	224.258077225648	224.30805890308702	0.0499816774390638	182260
182.36	50	262	0	0	rhubarb	1307	262	0	stimuli\rhubarb\rhubarb_11n.jpg	10	-1	0	0	rhubarb_11n.jpg	1	0.34191331453621404	1	224.358083491214	224.408066875767	0.0499833845533431	182360
182.46	50	263	0	0	footbath	631	263	0	stimuli\footbath\footbath_10s.jpg	9	-1	0	0	footbath_10s.jpg	0	0.0	0	224.458086587954	224.508064364549	0.049977776594460004	182460
182.56	50	264	0	0	tapestry	1625	264	0	stimuli\tapestry\tapestry_04s.jpg	3	-1	0	0	tapestry_04s.jpg	0	0.0	0	224.558088221122	224.608067948371	0.0499797272495925	182560
182.66	50	265	0	0	canoe	262	265	0	stimuli\canoe\canoe_08s.jpg	7	-1	0	0	canoe_08s.jpg	0	0.0	0	224.658093024511	224.708069826011	0.0499768014997244	182660
182.76	50	266	0	0	fence	575	266	0	stimuli\fence\fence_07s.jpg	6	-1	0	0	fence_07s.jpg	0	0.0	0	224.758096608333	224.808071947191	0.04997533885762099	182760
182.86	50	267	0	0	recliner	1294	267	0	stimuli\recliner\recliner_12s.jpg	11	-1	0	0	recliner_12s.jpg	0	0.0	0	224.858095803764	224.90807748166802	0.0499816779047251	182860
182.96	50	268	0	0	chinaware	331	268	0	stimuli\chinaware\chinaware_02s.jpg	1	-1	0	0	chinaware_02s.jpg	0	0.0	0	224.95812181848999	225.008080577943	0.0499587594531476	182960
183.06	50	269	0	0	screw	1390	269	0	stimuli\screw\screw_02s.jpg	1	-1	0	0	screw_02s.jpg	0	0.0	0	225.05810224032	225.108081724029	0.0499794837087393	183060
183.16	50	270	0	0	rack1	1268	270	0	stimuli\rack1\rack1_04s.jpg	3	-1	0	0	rack1_04s.jpg	0	0.0	0	225.158102898858	225.20808360120301	0.0499807023443282	183160
183.26	50	271	0	0	shawl	1411	271	0	stimuli\shawl\shawl_09s.jpg	8	-1	0	0	shawl_09s.jpg	0	0.0	0	225.25810136273498	225.308087916579	0.0499865538440645	183260
183.36	50	272	0	0	blanket	136	272	0	stimuli\blanket\blanket_04s.jpg	3	-1	0	0	blanket_04s.jpg	0	0.0	0	225.358109091409	225.408088818658	0.0499797272495925	183360
183.46	50	273	0	0	garter	659	273	0	stimuli\garter\garter_06s.jpg	5	-1	0	0	garter_06s.jpg	0	0.0	0	225.45810853084498	225.50809167139198	0.0499831405468285	183460
183.56	50	274	0	0	zebra	1851	274	0	stimuli\zebra\zebra_07s.jpg	6	-1	0	0	zebra_07s.jpg	0	0.0	0	225.55811504041802	225.608095742762	0.0499807023443282	183560
183.66	50	275	0	0	polisher	1215	275	0	stimuli\polisher\polisher_05s.jpg	4	-1	0	0	polisher_05s.jpg	0	0.0	0	225.65811862424	225.70809932705	0.0499807028099895	183660
183.76	50	276	0	0	fuse	652	276	0	stimuli\fuse\fuse_08s.jpg	7	-1	0	0	fuse_08s.jpg	0	0.0	0	225.758119526319	225.808097790927	0.0499782646074891	183760
183.86	50	277	0	0	rubber_band	1337	277	0	stimuli\rubber_band\rubber_band_02s.jpg	1	-1	0	0	rubber_band_02s.jpg	0	0.0	0	225.85812213504698	225.90809966810002	0.0499775330536067	183860
183.96	50	278	0	0	radiator	1272	278	0	stimuli\radiator\radiator_06s.jpg	5	-1	0	0	radiator_06s.jpg	0	0.0	0	225.958122549579	226.008105446585	0.0499828970059752	183960
184.06	50	279	0	0	fire_alarm	591	279	0	stimuli\fire_alarm\fire_alarm_07s.jpg	6	-1	0	0	fire_alarm_07s.jpg	0	0.0	0	226.05812808405602	226.108110737056	0.0499826529994607	184060
184.161	50	280	0	0	apron	33	280	0	stimuli\apron\apron_06s.jpg	5	-1	0	0	apron_06s.jpg	0	0.0	0	226.158130692784	226.208112370688	0.0499816779047251	184161
184.26	50	281	0	0	thumbtack	1654	281	0	stimuli\thumbtack\thumbtack_05s.jpg	4	-1	0	0	thumbtack_05s.jpg	0	0.0	0	226.25813159486302	226.30811449186902	0.0499828970059752	184260
184.361	50	282	0	0	cotton_candy	421	282	0	stimuli\cotton_candy\cotton_candy_06s.jpg	5	-1	0	0	cotton_candy_06s.jpg	0	0.0	0	226.358134935144	226.408116613049	0.0499816779047251	184361
184.461	50	283	0	0	calamari	239	283	0	stimuli\calamari\calamari_08s.jpg	7	-1	0	0	calamari_08s.jpg	0	0.0	0	226.458136568777	226.50812141597302	0.0499848471954465	184461
184.561	50	284	0	0	cooker	399	284	0	stimuli\cooker\cooker_06s.jpg	5	-1	0	0	cooker_06s.jpg	0	0.0	0	226.55814088415403	226.6081240247	0.0499831405468285	184561
184.661	50	285	0	0	swing_set	1599	285	0	stimuli\swing_set\swing_set_07s.jpg	6	-1	0	0	swing_set_07s.jpg	0	0.0	0	226.658143492881	226.708123464137	0.0499799712561071	184661
184.761	50	286	0	0	chopsticks	339	286	0	stimuli\chopsticks\chopsticks_04s.jpg	3	-1	0	0	chopsticks_04s.jpg	0	0.0	0	226.75814853981097	226.80812680395303	0.0499782641418278	184761
184.861	50	287	0	0	boat	154	287	0	stimuli\boat\boat_01b.jpg	0	-1	0	0	boat_01b.jpg	0	0.0	0	226.858147979248	226.908128437586	0.0499804583378136	184861
184.961	50	288	0	0	clipboard	355	288	0	stimuli\clipboard\clipboard_07s.jpg	6	-1	0	0	clipboard_07s.jpg	0	0.0	0	226.958151319064	227.008135435171	0.0499841161072254	184961
185.061	50	289	0	0	pepper_mill	1151	289	0	stimuli\pepper_mill\pepper_mill_08s.jpg	7	-1	0	0	pepper_mill_08s.jpg	0	0.0	0	227.058156122454	227.108135849703	0.0499797272495925	185061
185.161	50	290	0	0	cage	236	290	0	stimuli\cage\cage_01b.jpg	0	-1	0	0	cage_01b.jpg	0	0.0	0	227.158156780526	227.20813967753202	0.0499828970059752	185161
185.261	50	291	0	0	vegetable	1754	291	0	stimuli\vegetable\vegetable_08s.jpg	7	-1	0	0	vegetable_08s.jpg	0	0.0	0	227.258163778111	227.308141798247	0.0499780201353133	185261
185.361	50	292	0	0	kneepad	878	292	0	stimuli\kneepad\kneepad_02s.jpg	1	-1	0	0	kneepad_02s.jpg	0	0.0	0	227.358160047792	227.408143675886	0.0499836280941963	185361
185.461	50	293	0	0	shortbread	1429	293	0	stimuli\shortbread\shortbread_06s.jpg	5	-1	0	0	shortbread_06s.jpg	0	0.0	0	227.45816143741797	227.508144333959	0.04998289654031401	185461
185.561	50	294	0	0	eraser	559	294	0	stimuli\eraser\eraser_10s.jpg	9	-1	0	1	eraser_10s.jpg	0	0.0	0	227.558168922085	227.608148161788	0.0499792397022247	185561
185.661	50	295	0	0	hedge	773	295	0	stimuli\hedge\hedge_12s.jpg	11	-1	0	0	hedge_12s.jpg	0	0.0	0	227.65816884907002	227.708153452724	0.0499846036545932	185661
185.761	50	296	0	0	headrest	767	296	0	stimuli\headrest\headrest_08s.jpg	7	-1	0	0	headrest_08s.jpg	0	0.0	0	227.758172433358	227.808156061452	0.0499836280941963	185761
185.861	50	297	0	0	doorhandle	508	297	0	stimuli\doorhandle\doorhandle_10s.jpg	9	-1	0	0	doorhandle_10s.jpg	1	0.29216545028612	1	227.85817991802503	227.908154525328	0.0499746073037386	185861
185.961	50	298	0	0	platypus	1198	298	0	stimuli\platypus\platypus_10n.jpg	9	-1	0	0	platypus_10n.jpg	0	0.0	0	227.95817813836	228.008158353157	0.0499802147969604	185961
186.061	50	299	0	0	exhaust_pipe	562	299	0	stimuli\exhaust_pipe\exhaust_pipe_11s.jpg	10	-1	0	0	exhaust_pipe_11s.jpg	0	0.0	0	228.05818123463501	228.10816291253997	0.0499816779047251	186061
186.161	50	300	0	0	chandelier	305	300	0	stimuli\chandelier\chandelier_12s.jpg	11	-1	0	0	chandelier_12s.jpg	0	0.0	0	228.158188719768	228.208166740369	0.0499780206009746	186161
186.261	50	301	0	0	flatiron	613	301	0	stimuli\flatiron\flatiron_10s.jpg	9	-1	0	0	flatiron_10s.jpg	0	0.0	0	228.258189621847	228.30817178683398	0.0499821649864316	186261
186.361	50	302	0	0	earplug	539	302	0	stimuli\earplug\earplug_07s.jpg	6	-1	0	0	earplug_07s.jpg	0	0.0	0	228.35819247411598	228.40816732542598	0.0499748513102531	186361
186.461	50	303	0	0	twig	1740	303	0	stimuli\twig\twig_02s.jpg	1	-1	0	0	twig_02s.jpg	0	0.0	0	228.458190694451	228.508176273201	0.0499855787493289	186461
186.561	50	304	0	0	chipmunk	334	304	0	stimuli\chipmunk\chipmunk_09s.jpg	8	-1	0	0	chipmunk_09s.jpg	0	0.0	0	228.55819330317902	228.60817498108398	0.0499816779047251	186561
186.661	50	305	0	0	sand	1351	305	0	stimuli\sand\sand_07s.jpg	6	-1	0	0	sand_07s.jpg	0	0.0	0	228.658197375014	228.708177345805	0.0499799707904458	186661
186.761	50	306	0	0	clay	352	306	0	stimuli\clay\clay_07s.jpg	6	-1	0	0	clay_07s.jpg	0	0.0	0	228.758199983742	228.80818117363398	0.049981189891696	186761
186.861	50	307	0	0	match	983	307	0	stimuli\match\match_11s.jpg	10	-1	0	0	match_11s.jpg	0	0.0	0	228.858200641815	228.908181588165	0.0499809463508427	186861
186.961	50	308	0	0	clover	366	308	0	stimuli\clover\clover_10s.jpg	9	-1	0	0	clover_10s.jpg	0	0.0	0	228.958205444738	229.00818249024502	0.0499770455062389	186961
199.061	50	309	0	0	figurine	582	0	1	stimuli\figurine\figurine_11s.jpg	10	-1	1	0	figurine_11s.jpg	1	0.0	0	241.058508426882	241.10848961724	0.0499811903573573	199061
199.161	50	310	0	0	licorice	922	1	1	stimuli\licorice\licorice_12s.jpg	11	-1	1	0	licorice_12s.jpg	0	0.0	0	241.158506890759	241.208487106021	0.0499802152626216	199161
199.261	50	311	0	0	thorn	1650	2	1	stimuli\thorn\thorn_02s.jpg	1	-1	1	0	thorn_02s.jpg	0	0.0	0	241.258511937689	241.308492152486	0.0499802147969604	199261
199.361	50	312	0	0	manhole	967	3	1	stimuli\manhole\manhole_09n.jpg	8	-1	1	0	manhole_09n.jpg	0	0.0	0	241.358512839768	241.408494517673	0.0499816779047251	199361
199.461	50	313	0	0	windowsill	1819	4	1	stimuli\windowsill\windowsill_08s.jpg	7	-1	1	0	windowsill_08s.jpg	0	0.0	0	241.45851496094798	241.5084971264	0.0499821654520929	199461
199.561	50	314	0	0	flamingo	608	5	1	stimuli\flamingo\flamingo_04s.jpg	3	-1	1	0	flamingo_04s.jpg	0	0.0	0	241.558517813683	241.608501685783	0.0499838721007109	199561
199.661	50	315	0	0	wooden_leg	1834	6	1	stimuli\wooden_leg\wooden_leg_11s.jpg	10	-1	1	0	wooden_leg_11s.jpg	0	0.0	0	241.65852017840402	241.708503806964	0.0499836285598576	199661
199.761	50	316	0	0	pinecone	1183	7	1	stimuli\pinecone\pinecone_04s.jpg	3	-1	1	0	pinecone_04s.jpg	0	0.0	0	241.758523275144	241.808504465036	0.049981189891696	199761
199.861	50	317	0	0	leg	911	8	1	stimuli\leg\leg_06s.jpg	5	-1	1	0	leg_06s.jpg	0	0.0	0	241.85852661496003	241.908507073764	0.0499804588034749	199861
199.961	50	318	0	0	totem_pole	1689	9	1	stimuli\totem_pole\totem_pole_09s.jpg	8	-1	1	0	totem_pole_09s.jpg	0	0.0	0	241.958528736141	242.00854405993599	0.0500153237953782	199961
200.061	50	319	0	0	stirrup	1558	10	1	stimuli\stirrup\stirrup_03s.jpg	2	-1	1	0	stirrup_03s.jpg	0	0.0	0	242.058557676617	242.10853911051498	0.0499814338982105	200061
200.161	50	320	0	0	matchbox	984	11	1	stimuli\matchbox\matchbox_07s.jpg	6	-1	1	0	matchbox_07s.jpg	0	0.0	0	242.158562723547	242.20852440875	0.0499616852030158	200161
200.261	50	321	0	0	lizard	937	12	1	stimuli\lizard\lizard_02n.jpg	1	-1	1	0	lizard_02n.jpg	0	0.0	0	242.25856216251898	242.30854603461898	0.0499838721007109	200261
200.361	50	322	0	0	wig	1816	13	1	stimuli\wig\wig_06s.jpg	5	-1	1	0	wig_06s.jpg	0	0.0	0	242.358552824706	242.408547180705	0.0499943559989333	200361
200.461	50	323	0	0	sheath	1413	14	1	stimuli\sheath\sheath_10s.jpg	9	-1	1	0	sheath_10s.jpg	0	0.0	0	242.45857176883098	242.508551008534	0.0499792397022247	200461
200.561	50	324	0	0	tile	1660	15	1	stimuli\tile\tile_01s.jpg	0	-1	1	0	tile_01s.jpg	0	0.0	0	242.55855511641101	242.6085514226	0.0499963061884046	200561
200.661	50	325	0	0	plaster_cast	1195	16	1	stimuli\plaster_cast\plaster_cast_01b.jpg	0	-1	1	0	plaster_cast_01b.jpg	0	0.0	0	242.65855772513902	242.70855500688802	0.0499972817488015	200661
200.761	50	326	0	0	computer_screen	395	17	1	stimuli\computer_screen\computer_screen_04s.jpg	3	-1	1	0	computer_screen_04s.jpg	0	0.0	0	242.75857691327099	242.808556396514	0.04997948324307799	200761
200.861	50	327	0	0	drain	515	18	1	stimuli\drain\drain_05s.jpg	4	-1	1	0	drain_05s.jpg	0	0.0	0	242.858577083796	242.908547546249	0.0499704624526203	200861
200.961	50	328	0	0	wrist	1842	19	1	stimuli\wrist\wrist_10s.jpg	9	-1	1	0	wrist_10s.jpg	0	0.0	0	242.958566770423	243.00856258906398	0.0499958186410367	200961
201.061	50	329	0	0	steering_wheel	1546	20	1	stimuli\steering_wheel\steering_wheel_04s.jpg	3	-1	1	0	steering_wheel_04s.jpg	0	0.0	0	243.05858668964402	243.10856617335202	0.0499794837087393	201061
201.161	50	330	0	0	ring	1313	21	1	stimuli\ring\ring_06s.jpg	5	-1	1	0	ring_06s.jpg	0	0.0	0	243.158569793683	243.208567806985	0.0499980133026838	201161
201.261	50	331	0	0	clipper1	356	22	1	stimuli\clipper1\clipper1_08s.jpg	7	-1	1	0	clipper1_08s.jpg	0	0.0	0	243.258588493802	243.308573585004	0.04998509120196099	201261
201.361	50	332	0	0	toaster_oven	1667	23	1	stimuli\toaster_oven\toaster_oven_10s.jpg	9	-1	1	0	toaster_oven_10s.jpg	0	0.0	0	243.358590614982	243.40855717659	0.0499665616080165	201361
201.461	50	333	0	0	basketball_hoop	84	24	1	stimuli\basketball_hoop\basketball_hoop_09s.jpg	8	-1	1	0	basketball_hoop_09s.jpg	0	0.0	0	243.458594442811	243.508582703769	0.0499882609583437	201461
201.561	50	334	0	0	hand	744	25	1	stimuli\hand\hand_02s.jpg	1	-1	1	0	hand_02s.jpg	0	0.0	0	243.558627528138	243.60858165519298	0.0499541270546615	201561
201.661	50	335	0	0	spur	1525	26	1	stimuli\spur\spur_05s.jpg	4	-1	1	0	spur_05s.jpg	0	0.0	0	243.658605268225	243.708581825718	0.0499765574932098	201661
201.761	50	336	0	0	key	869	27	1	stimuli\key\key_05s.jpg	4	-1	1	0	key_05s.jpg	0	0.0	0	243.758609096054	243.808580046054	0.0499709499999881	201761
201.861	50	337	0	0	knife	879	28	1	stimuli\knife\knife_04s.jpg	3	-1	1	0	knife_04s.jpg	0	0.0	0	243.85860243998502	243.908610205166	0.0500077651813626	201861
201.961	50	338	0	0	fondue	626	29	1	stimuli\fondue\fondue_08n.jpg	7	-1	1	0	fondue_08n.jpg	0	0.0	0	243.958603342064	244.008585751057	0.0499824089929461	201961
202.061	50	339	0	0	bandanna	67	30	1	stimuli\bandanna\bandanna_02s.jpg	1	-1	1	0	bandanna_02s.jpg	0	0.0	0	244.05860985163602	244.10858860379102	0.0499787521548569	202061
202.161	50	340	0	0	stockings	1559	31	1	stimuli\stockings\stockings_04s.jpg	3	-1	1	0	stockings_04s.jpg	0	0.0	0	244.15861075371498	244.208591700066	0.0499809463508427	202161
202.261	50	341	0	0	pan	1103	32	1	stimuli\pan\pan_02s.jpg	1	-1	1	0	pan_02s.jpg	0	0.0	0	244.25861604465197	244.30859796609698	0.0499819214455783	202261
202.361	50	342	0	0	shredder	1437	33	1	stimuli\shredder\shredder_05s.jpg	4	-1	1	0	shredder_05s.jpg	0	0.0	0	244.358616459183	244.40859642997398	0.0499799707904458	202361
202.461	50	343	0	0	lantern	895	34	1	stimuli\lantern\lantern_07s.jpg	6	-1	1	1	lantern_07s.jpg	0	0.0	0	244.45861638570202	244.50859977025502	0.0499833845533431	202461
202.561	50	344	0	0	brick	199	35	1	stimuli\brick\brick_11s.jpg	10	-1	1	0	brick_11s.jpg	0	0.0	0	244.55861996999002	244.608602378983	0.0499824089929461	202561
202.661	50	345	0	0	tea	1631	36	1	stimuli\tea\tea_07s.jpg	6	-1	1	0	tea_07s.jpg	0	0.0	0	244.65862355381302	244.708605475258	0.0499819214455783	202661
202.761	50	346	0	0	dalmatian	471	37	1	stimuli\dalmatian\dalmatian_05s.jpg	4	-1	1	0	dalmatian_05s.jpg	1	0.300190195906907	1	244.75862908828998	244.808612228837	0.0499831405468285	202761
202.861	50	347	0	0	palette	1100	38	1	stimuli\palette\palette_12s.jpg	11	-1	1	0	palette_12s.jpg	0	0.0	0	244.858629502822	244.908611180726	0.0499816779047251	202861
202.961	50	348	0	0	floss	617	39	1	stimuli\floss\floss_01b.jpg	0	-1	1	0	floss_01b.jpg	0	0.0	0	244.958635037299	245.00861403299498	0.0499789956957102	202961
203.061	50	349	0	0	artichoke	39	40	1	stimuli\artichoke\artichoke_08n.jpg	7	-1	1	0	artichoke_08n.jpg	0	0.0	0	245.058633745182	245.108616398182	0.0499826529994607	203061
203.161	50	350	0	0	cleat	353	41	1	stimuli\cleat\cleat_07s.jpg	6	-1	1	0	cleat_07s.jpg	0	0.0	0	245.158636597451	245.20862071355802	0.0499841161072254	203161
203.261	50	351	0	0	rhinoceros	1306	42	1	stimuli\rhinoceros\rhinoceros_08s.jpg	7	-1	1	0	rhinoceros_08s.jpg	0	0.0	0	245.25864261994099	245.308619908988	0.0499772890470922	203261
203.361	50	352	0	0	crane	431	43	1	stimuli\crane\crane_02s.jpg	1	-1	1	0	crane_02s.jpg	0	0.0	0	245.358644497115	245.40862641856097	0.0499819214455783	203361
203.461	50	353	0	0	satellite_dish	1361	44	1	stimuli\satellite_dish\satellite_dish_07s.jpg	6	-1	1	0	satellite_dish_07s.jpg	0	0.0	0	245.45864759339	245.508631953038	0.0499843596480787	203461
203.561	50	354	0	0	tumbleweed	1727	45	1	stimuli\tumbleweed\tumbleweed_01b.jpg	0	-1	1	0	tumbleweed_01b.jpg	0	0.0	0	245.558650202118	245.608628222719	0.0499780206009746	203561
203.661	50	355	0	0	gauze	664	46	1	stimuli\gauze\gauze_11s.jpg	10	-1	1	0	gauze_11s.jpg	0	0.0	0	245.658648665994	245.708632782102	0.0499841161072254	203661
203.761	50	356	0	0	salad	1348	47	1	stimuli\salad\salad_01b.jpg	0	-1	1	0	salad_01b.jpg	0	0.0	0	245.758657370228	245.808635878377	0.0499785081483424	203761
203.861	50	357	0	0	ski_pole	1455	48	1	stimuli\ski_pole\ski_pole_09s.jpg	8	-1	1	0	ski_pole_09s.jpg	0	0.0	0	245.85865705320597	245.90863848710399	0.0499814338982105	203861
203.961	50	358	0	0	retainer	1303	49	1	stimuli\retainer\retainer_12s.jpg	11	-1	1	0	retainer_12s.jpg	0	0.0	0	245.95865844283298	246.008639876731	0.0499814338982105	203961
204.061	50	359	0	0	gorilla	695	50	1	stimuli\gorilla\gorilla_05s.jpg	4	-1	1	0	gorilla_05s.jpg	0	0.0	0	246.058659832459	246.108645411208	0.0499855787493289	204061
204.161	50	360	0	0	toaster	1666	51	1	stimuli\toaster\toaster_05s.jpg	4	-1	1	0	toaster_05s.jpg	0	0.0	0	246.15866146609198	246.208646069746	0.0499846036545932	204161
204.261	50	361	0	0	moose	1018	52	1	stimuli\moose\moose_04s.jpg	3	-1	1	0	moose_04s.jpg	0	0.0	0	246.258667000569	246.30865062866403	0.0499836280941963	204261
204.361	50	362	0	0	trough	1718	53	1	stimuli\trough\trough_12s.jpg	11	-1	1	0	trough_12s.jpg	0	0.0	0	246.35866960929698	246.408652749844	0.0499831405468285	204361
204.461	50	363	0	0	piglet	1173	54	1	stimuli\piglet\piglet_10s.jpg	9	-1	1	0	piglet_10s.jpg	0	0.0	0	246.45867977617297	246.50865487102402	0.0499750948511064	204461
204.561	50	364	0	0	polar_bear	1211	55	1	stimuli\polar_bear\polar_bear_08s.jpg	7	-1	1	0	polar_bear_08s.jpg	0	0.0	0	246.55867775250198	246.60865528555598	0.0499775330536067	204561
204.661	50	365	0	0	battery	97	56	1	stimuli\battery\battery_08s.jpg	7	-1	1	0	battery_08s.jpg	0	0.0	0	246.65867841104	246.708659113385	0.0499807023443282	204661
204.761	50	366	0	0	fireworks	598	57	1	stimuli\fireworks\fireworks_07s.jpg	6	-1	1	0	fireworks_07s.jpg	0	0.0	0	246.75867906911301	246.80866074701802	0.0499816779047251	204761
204.861	50	367	0	0	cigarette	344	58	1	stimuli\cigarette\cigarette_02s.jpg	1	-1	1	0	cigarette_02s.jpg	0	0.0	0	246.85868289694199	246.908663599752	0.0499807028099895	204861
204.961	50	368	0	0	router	1336	59	1	stimuli\router\router_10s.jpg	9	-1	1	0	router_10s.jpg	0	0.0	0	246.95868891896703	247.00866693956797	0.0499780206009746	204961
205.061	50	369	0	0	crystal_ball	455	60	1	stimuli\crystal_ball\crystal_ball_01b.jpg	0	-1	1	0	crystal_ball_01b.jpg	0	0.0	0	247.058690065052	247.108673205599	0.0499831405468285	205061
205.161	50	370	0	0	pesto	1156	61	1	stimuli\pesto\pesto_06s.jpg	5	-1	1	0	pesto_06s.jpg	0	0.0	0	247.158689504489	247.20865899138198	0.0499694868922234	205161
205.261	50	371	0	0	graffiti	697	62	1	stimuli\graffiti\graffiti_09s.jpg	8	-1	1	0	graffiti_09s.jpg	0	0.0	0	247.25869381986598	247.308674766216	0.0499809463508427	205261
205.361	50	372	0	0	saw	1366	63	1	stimuli\saw\saw_08s.jpg	7	-1	1	0	saw_08s.jpg	0	0.0	0	247.35869667213402	247.408677618485	0.0499809463508427	205361
205.461	50	373	0	0	vase	1753	64	1	stimuli\vase\vase_11s.jpg	10	-1	1	0	vase_11s.jpg	0	0.0	0	247.458681239281	247.508683152962	0.0500019136816263	205461
205.561	50	374	0	0	green_beans	712	65	1	stimuli\green_beans\green_beans_10s.jpg	9	-1	1	0	green_beans_10s.jpg	0	0.0	0	247.558705059346	247.608688443899	0.0499833845533431	205561
205.661	50	375	0	0	cigarette_holder	346	66	1	stimuli\cigarette_holder\cigarette_holder_01b.jpg	0	-1	1	0	cigarette_holder_01b.jpg	0	0.0	0	247.658701816574	247.708702024072	0.0500002074986696	205661
205.761	50	376	0	0	bib	122	67	1	stimuli\bib\bib_11s.jpg	10	-1	1	0	bib_11s.jpg	0	0.0	0	247.758708326612	247.808689028956	0.0499807023443282	205761
205.861	50	377	0	0	wine_cooler	1825	68	1	stimuli\wine_cooler\wine_cooler_03s.jpg	2	-1	1	0	wine_cooler_03s.jpg	0	0.0	0	247.858709228691	247.90869431942698	0.0499850907362998	205861
205.961	50	378	0	0	wedge	1801	69	1	stimuli\wedge\wedge_04s.jpg	3	-1	1	0	wedge_04s.jpg	0	0.0	0	247.958714031614	248.008696684614	0.0499826529994607	205961
206.061	50	379	0	0	beachball	99	70	1	stimuli\beachball\beachball_08s.jpg	7	-1	1	0	beachball_08s.jpg	0	0.0	0	248.05871785944302	248.108684664592	0.0499668051488698	206061
206.161	50	380	0	0	shell2	1418	71	1	stimuli\shell2\shell2_09s.jpg	8	-1	1	0	shell2_09s.jpg	0	0.0	0	248.15872217482	248.208687760867	0.0499655860476196	206161
206.261	50	381	0	0	thimble	1649	72	1	stimuli\thimble\thimble_06n.jpg	5	-1	1	0	thimble_06n.jpg	0	0.0	0	248.258722345345	248.30870743654702	0.04998509120196099	206261
206.361	50	382	0	0	fork	634	73	1	stimuli\fork\fork_12s.jpg	11	-1	1	0	fork_12s.jpg	0	0.0	0	248.35872836737002	248.40872077271302	0.0499924053438008	206361
206.461	50	383	0	0	hoe	784	74	1	stimuli\hoe\hoe_03s.jpg	2	-1	1	0	hoe_03s.jpg	0	0.0	0	248.458720736206	248.508702170104	0.0499814338982105	206461
206.561	50	384	0	0	swimsuit	1597	75	1	stimuli\swimsuit\swimsuit_03s.jpg	2	-1	1	0	swimsuit_03s.jpg	0	0.0	0	248.558721882291	248.60870746104	0.0499855787493289	206561
206.661	50	385	0	0	chinchilla	332	76	1	stimuli\chinchilla\chinchilla_01b.jpg	0	-1	1	0	chinchilla_01b.jpg	0	0.0	0	248.65872473456002	248.708704705816	0.0499799712561071	206661
206.761	50	386	0	0	laundry_basket	902	77	1	stimuli\laundry_basket\laundry_basket_08s.jpg	7	-1	1	0	laundry_basket_08s.jpg	0	0.0	0	248.758728074841	248.808709996287	0.0499819214455783	206761
206.861	50	387	0	0	dumbbell	530	78	1	stimuli\dumbbell\dumbbell_03s.jpg	2	-1	1	0	dumbbell_03s.jpg	0	0.0	0	248.858730440028	248.908712849021	0.0499824089929461	206861
206.961	50	388	0	0	binder	126	79	1	stimuli\binder\binder_02s.jpg	1	-1	1	0	binder_02s.jpg	0	0.0	0	248.95873402384998	249.0087137511	0.0499797272495925	206961
207.061	50	389	0	0	dandelion	472	80	1	stimuli\dandelion\dandelion_04s.jpg	3	-1	1	0	dandelion_04s.jpg	0	0.0	0	249.058737851679	249.108719529584	0.0499816779047251	207061
207.161	50	390	0	0	outfit	1087	81	1	stimuli\outfit\outfit_11s.jpg	10	-1	1	0	outfit_11s.jpg	0	0.0	0	249.158739728853	249.208720675204	0.0499809463508427	207161
207.261	50	391	0	0	bag	54	82	1	stimuli\bag\bag_04s.jpg	3	-1	1	0	bag_04s.jpg	0	0.0	0	249.25874209404	249.30872206482996	0.0499799707904458	207261
207.361	50	392	0	0	hail	732	83	1	stimuli\hail\hail_09s.jpg	8	-1	1	0	hail_09s.jpg	0	0.0	0	249.35874470276798	249.40872247936198	0.049977776594460004	207361
207.461	50	393	0	0	swing	1598	84	1	stimuli\swing\swing_08s.jpg	7	-1	1	0	swing_08s.jpg	0	0.0	0	249.458747067954	249.508727770299	0.0499807023443282	207461
207.561	50	394	0	0	beaver	107	85	1	stimuli\beaver\beaver_04s.jpg	3	-1	1	0	beaver_04s.jpg	0	0.0	0	249.558747970033	249.608731598128	0.0499836280941963	207561
207.661	50	395	0	0	bee	111	86	1	stimuli\bee\bee_09s.jpg	8	-1	1	0	bee_09s.jpg	0	0.0	0	249.658750822302	249.708736401051	0.0499855787493289	207661
207.761	50	396	0	0	armor	37	87	1	stimuli\armor\armor_05s.jpg	4	-1	1	0	armor_05s.jpg	0	0.0	0	249.75876342738	249.808741691522	0.0499782641418278	207761
207.861	50	397	0	0	peacock	1130	88	1	stimuli\peacock\peacock_09s.jpg	8	-1	1	0	peacock_09s.jpg	0	0.0	0	249.858763597906	249.908743325155	0.0499797272495925	207861
207.961	50	398	0	0	pencil	1142	89	1	stimuli\pencil\pencil_10s.jpg	9	-1	1	0	pencil_10s.jpg	0	0.0	0	249.958764987532	250.00874617788898	0.0499811903573573	207961
208.061	50	399	0	0	soldering_iron	1494	90	1	stimuli\soldering_iron\soldering_iron_07s.jpg	6	-1	1	0	soldering_iron_07s.jpg	0	0.0	0	250.058772716671	250.10875244392102	0.0499797272495925	208061
208.161	50	400	0	0	rug	1340	91	1	stimuli\rug\rug_07s.jpg	6	-1	1	0	rug_07s.jpg	0	0.0	0	250.15877483785198	250.208757978398	0.0499831405468285	208161
208.261	50	401	0	0	stamp1	1535	92	1	stimuli\stamp1\stamp1_03s.jpg	2	-1	1	0	stamp1_03s.jpg	0	0.0	0	250.258774033282	250.30876058712602	0.0499865538440645	208261
208.361	50	402	0	0	stained_glass	1531	93	1	stimuli\stained_glass\stained_glass_06s.jpg	5	-1	1	0	stained_glass_06s.jpg	0	0.0	0	250.358773472253	250.40875758789502	0.0499841156415641	208361
208.461	50	403	0	0	panda	1105	94	1	stimuli\panda\panda_05s.jpg	4	-1	1	0	panda_05s.jpg	0	0.0	0	250.458784858231	250.508759953082	0.0499750948511064	208461
208.561	50	404	0	0	globe	679	95	1	stimuli\globe\globe_01b.jpg	0	-1	1	0	globe_01b.jpg	0	0.0	0	250.55878283456002	250.60876353690398	0.0499807023443282	208561
208.661	50	405	0	0	tamale	1618	96	1	stimuli\tamale\tamale_06s.jpg	5	-1	1	0	tamale_06s.jpg	0	0.0	0	250.658787393942	250.70876785227998	0.0499804583378136	208661
208.761	50	406	0	0	cymbal	468	97	1	stimuli\cymbal\cymbal_11s.jpg	10	-1	1	0	cymbal_11s.jpg	0	0.0	0	250.758786832914	250.808767535724	0.0499807028099895	208761
208.861	50	407	0	0	sickle	1441	98	1	stimuli\sickle\sickle_01b.jpg	0	-1	1	0	sickle_01b.jpg	0	0.0	0	250.858790417202	250.9087718511	0.0499814338982105	208861
208.961	50	408	0	0	sweeper	1594	99	1	stimuli\sweeper\sweeper_12s.jpg	11	-1	1	0	sweeper_12s.jpg	0	0.0	0	250.958792050369	251.008772021625	0.0499799712561071	208961
209.061	50	409	0	0	metronome	997	100	1	stimuli\metronome\metronome_05s.jpg	4	-1	1	0	metronome_05s.jpg	0	0.0	0	251.05879465956198	251.108776581008	0.0499819214455783	209061
209.161	50	410	0	0	ballot_box	61	101	1	stimuli\ballot_box\ballot_box_03s.jpg	2	-1	1	0	ballot_box_03s.jpg	0	0.0	0	251.15879775583699	251.20878406567502	0.0499863098375499	209161
209.261	50	411	0	0	bathtub	91	102	1	stimuli\bathtub\bathtub_06s.jpg	5	-1	1	0	bathtub_06s.jpg	0	0.0	0	251.258804996964	251.30878472421298	0.0499797272495925	209261
209.361	50	412	0	0	amplifier	20	103	1	stimuli\amplifier\amplifier_05s.jpg	4	-1	1	0	amplifier_05s.jpg	0	0.0	0	251.358803704847	251.408781968988	0.0499782641418278	209361
209.461	50	413	0	0	hose	800	104	1	stimuli\hose\hose_08s.jpg	7	-1	1	0	hose_08s.jpg	0	0.0	0	251.45880704466302	251.50878725992501	0.0499802152626216	209461
209.561	50	414	0	0	wing	1827	105	1	stimuli\wing\wing_07s.jpg	6	-1	1	0	wing_07s.jpg	0	0.0	0	251.55880965339	251.608795719687	0.0499860662966967	209561
209.661	50	415	0	0	sonogram	1496	106	1	stimuli\sonogram\sonogram_07s.jpg	6	-1	1	0	sonogram_07s.jpg	0	0.0	0	251.658809580375	251.708793940023	0.0499843596480787	209661
209.761	50	416	0	0	swan	1591	107	1	stimuli\swan\swan_11s.jpg	10	-1	1	0	swan_11s.jpg	0	0.0	0	251.75881609041198	251.808795573656	0.04997948324307799	209761
209.861	50	417	0	0	boy	184	108	1	stimuli\boy\boy_02s.jpg	1	-1	1	0	boy_02s.jpg	0	0.0	0	251.85881772358	251.90879842639	0.0499807028099895	209861
209.961	50	418	0	0	tee	1636	109	1	stimuli\tee\tee_07s.jpg	6	-1	1	0	tee_07s.jpg	0	0.0	0	251.95882008876703	252.00880079111099	0.0499807023443282	209961
210.061	50	419	0	0	power_line	1237	110	1	stimuli\power_line\power_line_11s.jpg	10	-1	1	0	power_line_11s.jpg	0	0.0	0	252.05882489169	252.10880925133802	0.0499843596480787	210061
210.161	50	420	0	0	taillight	1617	111	1	stimuli\taillight\taillight_01b.jpg	0	-1	1	0	taillight_01b.jpg	0	0.0	0	252.15882579376898	252.20880576502498	0.0499799712561071	210161
210.261	50	421	0	0	ready_meal	1292	112	1	stimuli\ready_meal\ready_meal_09s.jpg	8	-1	1	0	ready_meal_09s.jpg	0	0.0	0	252.258828890044	252.308809592854	0.0499807028099895	210261
210.361	50	422	0	0	puddle	1247	113	1	stimuli\puddle\puddle_02s.jpg	1	-1	1	0	puddle_02s.jpg	0	0.0	0	252.358829548582	252.408808544278	0.0499789956957102	210361
210.461	50	423	0	0	staple	1537	114	1	stimuli\staple\staple_07s.jpg	6	-1	1	0	staple_07s.jpg	0	0.0	0	252.45883215731004	252.508813834749	0.0499816774390638	210461
210.561	50	424	0	0	peach	1129	115	1	stimuli\peach\peach_10n.jpg	9	-1	1	0	peach_10n.jpg	0	0.0	0	252.558834522031	252.608816443942	0.0499819219112396	210561
210.661	50	425	0	0	ladybug	888	116	1	stimuli\ladybug\ladybug_12s.jpg	11	-1	1	0	ladybug_12s.jpg	0	0.0	0	252.658840544056	252.70882197842002	0.0499814343638718	210661
210.761	50	426	0	0	pencil_sharpener	1143	117	1	stimuli\pencil_sharpener\pencil_sharpener_03s.jpg	2	-1	1	0	pencil_sharpener_03s.jpg	0	0.0	0	252.758841202594	252.80882141739102	0.0499802147969604	210761
210.861	50	427	0	0	smoke_alarm	1473	118	1	stimuli\smoke_alarm\smoke_alarm_09s.jpg	8	-1	1	0	smoke_alarm_09s.jpg	0	0.0	0	252.85884454287603	252.90882573276798	0.049981189891696	210861
210.961	50	428	0	0	bedpan	109	119	1	stimuli\bedpan\bedpan_01b.jpg	0	-1	1	0	bedpan_01b.jpg	0	0.0	0	252.958846176509	253.008825659752	0.04997948324307799	210961
211.061	50	429	0	0	hopscotch	796	120	1	stimuli\hopscotch\hopscotch_12s.jpg	11	-1	1	0	hopscotch_12s.jpg	0	0.0	0	253.05884951632498	253.10883021913503	0.0499807028099895	211061
211.161	50	430	0	0	train	1698	121	1	stimuli\train\train_12n.jpg	11	-1	1	0	train_12n.jpg	0	0.0	0	253.158849687316	253.208833071403	0.0499833840876818	211161
211.261	50	431	0	0	poinsettia	1209	122	1	stimuli\poinsettia\poinsettia_08s.jpg	7	-1	1	0	poinsettia_08s.jpg	0	0.0	0	253.258854002692	253.30883763078603	0.0499836280941963	211261
211.361	50	432	0	0	nut	1066	123	1	stimuli\nut\nut_11s.jpg	10	-1	1	0	nut_11s.jpg	0	0.0	0	253.35885978071	253.408837070223	0.0499772895127535	211361
211.461	50	433	0	0	school_bus	1378	124	1	stimuli\school_bus\school_bus_11s.jpg	10	-1	1	0	school_bus_11s.jpg	0	0.0	0	253.458859707695	253.50884431134898	0.0499846036545932	211461
211.561	50	434	0	0	credit_card	438	125	1	stimuli\credit_card\credit_card_08s.jpg	7	-1	1	0	credit_card_08s.jpg	0	0.0	0	253.558861584868	253.60884301876598	0.0499814338982105	211561
211.661	50	435	0	0	bolo_tie	157	126	1	stimuli\bolo_tie\bolo_tie_02s.jpg	1	-1	1	0	bolo_tie_02s.jpg	0	0.0	0	253.658864437602	253.708844896406	0.0499804588034749	211661
211.761	50	436	0	0	owl	1091	127	1	stimuli\owl\owl_10s.jpg	9	-1	1	0	owl_10s.jpg	0	0.0	0	253.75886582722902	253.80884945532299	0.0499836280941963	211761
211.861	50	437	0	0	helmet	776	128	1	stimuli\helmet\helmet_07s.jpg	6	-1	1	0	helmet_07s.jpg	0	0.0	0	253.858868923504	253.908853771165	0.0499848476611078	211861
211.961	50	438	0	0	turtle	1736	129	1	stimuli\turtle\turtle_12s.jpg	11	-1	1	0	turtle_12s.jpg	0	0.0	0	253.958877871744	254.008854916785	0.0499770450405777	211961
212.061	50	439	0	0	roller_coaster	1325	130	1	stimuli\roller_coaster\roller_coaster_06s.jpg	5	-1	1	0	roller_coaster_06s.jpg	0	0.0	0	254.058878529817	254.108856793959	0.0499782641418278	212061
212.161	50	440	0	0	olive	1075	131	1	stimuli\olive\olive_07s.jpg	6	-1	1	0	olive_07s.jpg	0	0.0	0	254.1588772377	254.20886062178798	0.0499833840876818	212161
212.261	50	441	0	0	walnut	1778	132	1	stimuli\walnut\walnut_09n.jpg	8	-1	1	0	walnut_09n.jpg	0	0.0	0	254.258884966373	254.308863474522	0.0499785081483424	212261
212.361	50	442	0	0	coverall	425	133	1	stimuli\coverall\coverall_12s.jpg	11	-1	1	0	coverall_12s.jpg	0	0.0	0	254.35888343025002	254.40886583970902	0.0499824094586074	212361
212.461	50	443	0	0	breadbox	195	134	1	stimuli\breadbox\breadbox_05s.jpg	4	-1	1	0	breadbox_05s.jpg	0	0.0	0	254.458887014538	254.508868691977	0.0499816774390638	212461
212.561	50	444	0	0	drumstick	523	135	1	stimuli\drumstick\drumstick_10s.jpg	9	-1	1	0	drumstick_10s.jpg	0	0.0	0	254.558887672611	254.60886739986	0.0499797272495925	212561
212.661	50	445	0	0	extinguisher	563	136	1	stimuli\extinguisher\extinguisher_11s.jpg	10	-1	1	0	extinguisher_11s.jpg	0	0.0	0	254.658893694635	254.70887366589199	0.0499799712561071	212661
212.761	50	446	0	0	fan	571	137	1	stimuli\fan\fan_03s.jpg	2	-1	1	1	fan_03s.jpg	0	0.0	0	254.75889435317401	254.808878468815	0.0499841156415641	212761
212.861	50	447	0	0	dashboard	475	138	1	stimuli\dashboard\dashboard_02s.jpg	1	-1	1	0	dashboard_02s.jpg	0	0.0	0	254.85889744944902	254.908879858442	0.0499824089929461	212861
212.961	50	448	0	0	tab	1607	139	1	stimuli\tab\tab_07s.jpg	6	-1	1	0	tab_07s.jpg	1	0.25439472682774106	1	254.958901033271	255.00888514937802	0.0499841161072254	212961
213.061	50	449	0	0	grapefruit	703	140	1	stimuli\grapefruit\grapefruit_12s.jpg	11	-1	1	0	grapefruit_12s.jpg	0	0.0	0	255.058900716249	255.108886782546	0.0499860662966967	213061
213.161	50	450	0	0	bow1	174	141	1	stimuli\bow1\bow1_02s.jpg	1	-1	1	0	bow1_02s.jpg	0	0.0	0	255.158904788084	255.208886221983	0.0499814338982105	213161
213.261	50	451	0	0	racehorse	1267	142	1	stimuli\racehorse\racehorse_10s.jpg	9	-1	1	0	racehorse_10s.jpg	0	0.0	0	255.258909103461	255.308888587169	0.0499794837087393	213261
213.361	50	452	0	0	nail_clippers	1047	143	1	stimuli\nail_clippers\nail_clippers_09s.jpg	8	-1	1	0	nail_clippers_09s.jpg	0	0.0	0	255.35890951799198	255.40889070788398	0.049981189891696	213361
213.461	50	453	0	0	hippopotamus	781	144	1	stimuli\hippopotamus\hippopotamus_01b.jpg	0	-1	1	0	hippopotamus_01b.jpg	0	0.0	0	255.458913101815	255.50890331296299	0.049990211147814996	213461
213.561	50	454	0	0	pasta	1123	145	1	stimuli\pasta\pasta_04s.jpg	3	-1	1	0	pasta_04s.jpg	0	0.0	0	255.55891668610298	255.608897632454	0.0499809463508427	213561
213.661	50	455	0	0	sleeping_bag	1462	146	1	stimuli\sleeping_bag\sleeping_bag_10s.jpg	9	-1	1	0	sleeping_bag_10s.jpg	0	0.0	0	255.658919782378	255.708900972269	0.049981189891696	213661
213.761	50	456	0	0	glove	680	147	1	stimuli\glove\glove_08s.jpg	7	-1	1	0	glove_08s.jpg	0	0.0	0	255.758919709362	255.80890187434898	0.0499821649864316	213761
213.861	50	457	0	0	cookie_cutter	401	148	1	stimuli\cookie_cutter\cookie_cutter_03s.jpg	2	-1	1	0	cookie_cutter_03s.jpg	0	0.0	0	255.858921830542	255.908905458637	0.0499836280941963	213861
213.961	50	458	0	0	kayak	863	149	1	stimuli\kayak\kayak_05s.jpg	4	-1	1	0	kayak_05s.jpg	0	0.0	0	255.95892517035801	256.008907823358	0.0499826529994607	213961
214.061	50	459	0	0	table	1608	150	1	stimuli\table\table_02s.jpg	1	-1	1	0	table_02s.jpg	0	0.0	0	256.058933874592	256.108911651187	0.049977776594460004	214061
214.161	50	460	0	0	siren	1448	151	1	stimuli\siren\siren_10s.jpg	9	-1	1	0	siren_10s.jpg	0	0.0	0	256.158932582475	256.208912797272	0.0499802147969604	214161
214.261	50	461	0	0	ice_cube	819	152	1	stimuli\ice_cube\ice_cube_04s.jpg	3	-1	1	0	ice_cube_04s.jpg	0	0.0	0	256.258932021447	256.308917600196	0.0499855787493289	214261
214.361	50	462	0	0	cash_register	280	153	1	stimuli\cash_register\cash_register_12s.jpg	11	-1	1	0	cash_register_12s.jpg	0	0.0	0	256.358939506579	256.408916552085	0.0499770455062389	214361
214.461	50	463	0	0	seafood	1394	154	1	stimuli\seafood\seafood_02s.jpg	1	-1	1	0	seafood_02s.jpg	0	0.0	0	256.458935044706	256.508921842556	0.049986797850579	214461
214.561	50	464	0	0	hubcap	809	155	1	stimuli\hubcap\hubcap_11s.jpg	10	-1	1	0	hubcap_11s.jpg	0	0.0	0	256.55894667469	256.608922500629	0.0499758259393275	214561
214.661	50	465	0	0	donut	505	156	1	stimuli\donut\donut_12s.jpg	11	-1	1	0	donut_12s.jpg	0	0.0	0	256.658944651019	256.70893071731604	0.0499860662966967	214661
214.761	50	466	0	0	cookie_sheet	402	157	1	stimuli\cookie_sheet\cookie_sheet_06s.jpg	5	-1	1	0	cookie_sheet_06s.jpg	0	0.0	0	256.75894701574	256.808934301138	0.0499872853979468	214761
214.861	50	467	0	0	trap	1702	158	1	stimuli\trap\trap_11s.jpg	10	-1	1	0	trap_11s.jpg	0	0.0	0	256.858954500873	256.90892983973	0.04997533885762099	214861
214.961	50	468	0	0	wreck	1840	159	1	stimuli\wreck\wreck_02s.jpg	1	-1	1	0	wreck_02s.jpg	0	0.0	0	256.95895808469504	257.008937080856	0.0499789961613715	214961
215.061	50	469	0	0	teddy_bear	1635	160	1	stimuli\teddy_bear\teddy_bear_06s.jpg	5	-1	1	0	teddy_bear_06s.jpg	0	0.0	0	257.058956305031	257.108938470483	0.0499821654520929	215061
215.161	50	470	0	0	kite	874	161	1	stimuli\kite\kite_05s.jpg	4	-1	1	0	kite_05s.jpg	0	0.0	0	257.158959401306	257.208940104116	0.0499807028099895	215161
215.261	50	471	0	0	goggles	686	162	1	stimuli\goggles\goggles_04s.jpg	3	-1	1	0	goggles_04s.jpg	0	0.0	0	257.258960059844	257.308940518182	0.0499804583378136	215261
215.361	50	472	0	0	kangaroo	862	163	1	stimuli\kangaroo\kangaroo_08s.jpg	7	-1	1	0	kangaroo_08s.jpg	0	0.0	0	257.358963156119	257.408945565112	0.0499824089929461	215361
215.461	50	473	0	0	gingerbread_man	674	164	1	stimuli\gingerbread_man\gingerbread_man_02s.jpg	1	-1	1	0	gingerbread_man_02s.jpg	0	0.0	0	257.458966008853	257.508950856049	0.0499848471954465	215461
215.561	50	474	0	0	baseball_glove	80	165	1	stimuli\baseball_glove\baseball_glove_09s.jpg	8	-1	1	0	baseball_glove_09s.jpg	0	0.0	0	257.558968861122	257.608948588371	0.0499797272495925	215561
215.661	50	475	0	0	shutter	1440	166	1	stimuli\shutter\shutter_02s.jpg	1	-1	1	0	shutter_02s.jpg	0	0.0	0	257.658974639606	257.708953879308	0.0499792397022247	215661
215.761	50	476	0	0	gearshift	668	167	1	stimuli\gearshift\gearshift_07n.jpg	6	-1	1	0	gearshift_07n.jpg	0	0.0	0	257.758974810131	257.808955512475	0.0499807023443282	215761
215.861	50	477	0	0	mail	959	168	1	stimuli\mail\mail_06s.jpg	5	-1	1	0	mail_06s.jpg	0	0.0	0	257.858976687305	257.908959096763	0.0499824094586074	215861
215.961	50	478	0	0	wolf	1831	169	1	stimuli\wolf\wolf_03s.jpg	2	-1	1	0	wolf_03s.jpg	0	0.0	0	257.958978077397	258.008963899687	0.0499858222901821	215961
216.061	50	479	0	0	pear	1133	170	1	stimuli\pear\pear_01b.jpg	0	-1	1	0	pear_01b.jpg	0	0.0	0	258.058983611874	258.108964557759	0.0499809458851814	216061
216.161	50	480	0	0	tackle	1612	171	1	stimuli\tackle\tackle_04s.jpg	3	-1	1	0	tackle_04s.jpg	0	0.0	0	258.158985976595	258.20897058025	0.0499846036545932	216161
216.261	50	481	0	0	dumpster	533	172	1	stimuli\dumpster\dumpster_04s.jpg	3	-1	1	0	dumpster_04s.jpg	0	0.0	0	258.258989804424	258.308971482329	0.0499816779047251	216261
216.361	50	482	0	0	plunger	1204	173	1	stimuli\plunger\plunger_03s.jpg	2	-1	1	0	plunger_03s.jpg	0	0.0	0	258.358989731409	258.4089709213	0.049981189891696	216361
216.461	50	483	0	0	hanger	751	174	1	stimuli\hanger\hanger_10s.jpg	9	-1	1	0	hanger_10s.jpg	0	0.0	0	258.45899502188	258.508973042481	0.0499780206009746	216461
216.561	50	484	0	0	wind_chimes	1817	175	1	stimuli\wind_chimes\wind_chimes_04s.jpg	3	-1	1	0	wind_chimes_04s.jpg	0	0.0	0	258.558993973769	258.608979308512	0.0499853347428143	216561
216.661	50	485	0	0	bassoon	86	176	1	stimuli\bassoon\bassoon_12s.jpg	11	-1	1	0	bassoon_12s.jpg	0	0.0	0	258.658999020234	258.70898508653	0.0499860662966967	216661
216.761	50	486	0	0	meat_grinder	988	177	1	stimuli\meat_grinder\meat_grinder_03s.jpg	2	-1	1	0	meat_grinder_03s.jpg	0	0.0	0	258.759007480461	258.80898160021803	0.0499741197563708	216761
216.861	50	487	0	0	microwave	1000	178	1	stimuli\microwave\microwave_02s.jpg	1	-1	1	0	microwave_02s.jpg	0	0.0	0	258.859007407445	258.908983965404	0.0499765579588711	216861
216.961	50	488	0	0	popsicle	1225	179	1	stimuli\popsicle\popsicle_06s.jpg	5	-1	1	0	popsicle_06s.jpg	0	0.0	0	258.95901123527403	259.008990718517	0.04997948324307799	216961
217.061	50	489	0	0	sailboat	1347	180	1	stimuli\sailboat\sailboat_04s.jpg	3	-1	1	0	sailboat_04s.jpg	0	0.0	0	259.05900652986	259.108993327711	0.049986797850579	217061
217.161	50	490	0	0	bulletproof_vest	218	181	1	stimuli\bulletproof_vest\bulletproof_vest_12s.jpg	11	-1	1	0	bulletproof_vest_12s.jpg	0	0.0	0	259.159003774635	259.208993985783	0.049990211147814996	217161
217.261	50	491	0	0	veil	1755	182	1	stimuli\veil\veil_10s.jpg	9	-1	1	0	veil_10s.jpg	0	0.0	0	259.259020768106	259.308996838517	0.0499760704115033	217261
217.361	50	492	0	0	food_processor	627	183	1	stimuli\food_processor\food_processor_08s.jpg	7	-1	1	0	food_processor_08s.jpg	0	0.0	0	259.359016550239	259.40897262794897	0.04995607770979401	217361
217.461	50	493	0	0	dog	495	184	1	stimuli\dog\dog_02s.jpg	1	-1	1	0	dog_02s.jpg	0	0.0	0	259.459016964771	259.50900205597304	0.04998509120196099	217461
217.561	50	494	0	0	fire	590	185	1	stimuli\fire\fire_04s.jpg	3	-1	1	0	fire_04s.jpg	0	0.0	0	259.559024693444	259.609003689606	0.0499789961613715	217561
217.661	50	495	0	0	phone_booth	1162	186	1	stimuli\phone_booth\phone_booth_08s.jpg	7	-1	1	0	phone_booth_08s.jpg	0	0.0	0	259.659037298523	259.70900556678	0.0499682682566345	217661
217.761	50	496	0	0	porcupine	1226	187	1	stimuli\porcupine\porcupine_12s.jpg	11	-1	1	0	porcupine_12s.jpg	0	0.0	0	259.75902796071	259.809012320358	0.0499843596480787	217761
217.861	50	497	0	0	slicer	1463	188	1	stimuli\slicer\slicer_12s.jpg	11	-1	1	0	slicer_12s.jpg	0	0.0	0	259.85903300764	259.909014929086	0.0499819214455783	217861
217.961	50	498	0	0	crayon	435	189	1	stimuli\crayon\crayon_10s.jpg	9	-1	1	0	crayon_10s.jpg	0	0.0	0	259.95903195906396	260.009017050266	0.04998509120196099	217961
218.061	50	499	0	0	lingerie	932	190	1	stimuli\lingerie\lingerie_02s.jpg	1	-1	1	0	lingerie_02s.jpg	0	0.0	0	260.059035299346	260.109016489238	0.049981189891696	218061
218.161	50	500	0	0	anteater	25	191	1	stimuli\anteater\anteater_01b.jpg	0	-1	1	0	anteater_01b.jpg	0	0.0	0	260.15903888316797	260.209020073526	0.0499811903573573	218161
218.261	50	501	0	0	purse	1259	192	1	stimuli\purse\purse_05s.jpg	4	-1	1	0	purse_05s.jpg	0	0.0	0	260.259041004349	260.309023169801	0.0499821654520929	218261
218.361	50	502	0	0	boot	169	193	1	stimuli\boot\boot_09s.jpg	8	-1	1	0	boot_09s.jpg	0	0.0	0	260.359044832177	260.40902480343397	0.0499799712561071	218361
218.461	50	503	0	0	swizzle_stick	1601	194	1	stimuli\swizzle_stick\swizzle_stick_06s.jpg	5	-1	1	0	swizzle_stick_06s.jpg	0	0.0	0	260.459049635101	260.509027655702	0.0499780206009746	218461
218.561	50	504	0	0	minivan	1003	195	1	stimuli\minivan\minivan_10s.jpg	9	-1	1	0	minivan_10s.jpg	0	0.0	0	260.559046636336	260.609030752443	0.0499841161072254	218561
218.661	50	505	0	0	footrest	633	196	1	stimuli\footrest\footrest_12s.jpg	11	-1	1	0	footrest_12s.jpg	0	0.0	0	260.659051927272	260.709034092259	0.0499821649864316	218661
218.761	50	506	0	0	dish	489	197	1	stimuli\dish\dish_08s.jpg	7	-1	1	0	dish_08s.jpg	0	0.0	0	260.759055998642	260.80903816409403	0.0499821654520929	218761
218.861	50	507	0	0	orchid	1081	198	1	stimuli\orchid\orchid_05s.jpg	4	-1	1	0	orchid_05s.jpg	0	0.0	0	260.859064458869	260.909040772822	0.0499763139523566	218861
218.961	50	508	0	0	curry	464	199	1	stimuli\curry\curry_04s.jpg	3	-1	1	0	curry_04s.jpg	0	0.0	0	260.9590578028	261.00904094334703	0.0499831405468285	218961
219.061	50	509	0	0	wine_bottle	1824	200	1	stimuli\wine_bottle\wine_bottle_07s.jpg	6	-1	1	0	wine_bottle_07s.jpg	0	0.0	0	261.05906431283796	261.109044283628	0.0499799707904458	219061
219.161	50	510	0	0	stopwatch	1562	201	1	stimuli\stopwatch\stopwatch_12s.jpg	11	-1	1	0	stopwatch_12s.jpg	0	0.0	0	261.159064970911	261.20904762391	0.0499826529994607	219161
219.261	50	511	0	0	stiletto	1554	202	1	stimuli\stiletto\stiletto_10s.jpg	9	-1	1	0	stiletto_10s.jpg	0	0.0	0	261.25906806718604	261.30904755089404	0.0499794837087393	219261
219.361	50	512	0	0	alpaca	15	203	1	stimuli\alpaca\alpaca_11s.jpg	10	-1	1	0	alpaca_11s.jpg	0	0.0	0	261.359074577224	261.409055767115	0.049981189891696	219361
219.461	50	513	0	0	axe	45	204	1	stimuli\axe\axe_12n.jpg	11	-1	1	0	axe_12n.jpg	0	0.0	0	261.459070846904	261.50905496254603	0.0499841156415641	219461
219.561	50	514	0	0	pajamas	1099	205	1	stimuli\pajamas\pajamas_06s.jpg	5	-1	1	0	pajamas_06s.jpg	0	0.0	0	261.559075405821	261.609057571273	0.0499821654520929	219561
219.661	50	515	0	0	bow3	176	206	1	stimuli\bow3\bow3_09s.jpg	8	-1	1	0	bow3_09s.jpg	0	0.0	0	261.659079965204	261.70906188665003	0.0499819214455783	219661
219.761	50	516	0	0	jetski	848	207	1	stimuli\jetski\jetski_08s.jpg	7	-1	1	0	jetski_08s.jpg	0	0.0	0	261.75907964818197	261.809062301181	0.0499826529994607	219761
219.861	50	517	0	0	mango	966	208	1	stimuli\mango\mango_04s.jpg	3	-1	1	0	mango_04s.jpg	0	0.0	0	261.859084695112	261.909067835659	0.0499831405468285	219861
219.961	50	518	0	0	pendulum	1144	209	1	stimuli\pendulum\pendulum_11s.jpg	10	-1	1	0	pendulum_11s.jpg	0	0.0	0	261.959087791387	262.009070931934	0.0499831405468285	219961
220.061	50	519	0	0	puffin	1248	210	1	stimuli\puffin\puffin_08s.jpg	7	-1	1	0	puffin_08s.jpg	0	0.0	0	262.05909430142503	262.109071346465	0.0499770450405777	220061
220.161	50	520	0	0	dishwashing_liquid	492	211	1	stimuli\dishwashing_liquid\dishwashing_liquid_05s.jpg	4	-1	1	0	dishwashing_liquid_05s.jpg	0	0.0	0	262.159089839552	262.20907419919996	0.0499843596480787	220161
220.261	50	521	0	0	printer	1240	212	1	stimuli\printer\printer_11s.jpg	10	-1	1	0	printer_11s.jpg	0	0.0	0	262.259093423374	262.30907632038	0.0499828970059752	220261
220.361	50	522	0	0	volleyball	1767	213	1	stimuli\volleyball\volleyball_06s.jpg	5	-1	1	0	volleyball_06s.jpg	0	0.0	0	262.35909456946	262.409078685101	0.0499841156415641	220361
220.461	50	523	0	0	test_tube	1645	214	1	stimuli\test_tube\test_tube_01b.jpg	0	-1	1	0	test_tube_01b.jpg	0	0.0	0	262.459104979876	262.509083732031	0.0499787521548569	220461
220.561	50	524	0	0	cornbread	413	215	1	stimuli\cornbread\cornbread_05s.jpg	4	-1	1	0	cornbread_05s.jpg	0	0.0	0	262.55910368775903	262.60908585321204	0.0499821654520929	220561
220.661	50	525	0	0	megaphone	993	216	1	stimuli\megaphone\megaphone_01b.jpg	0	-1	1	0	megaphone_01b.jpg	0	0.0	0	262.659104833845	262.70908675529097	0.0499819214455783	220661
220.761	50	526	0	0	float	616	217	1	stimuli\float\float_11s.jpg	10	-1	1	0	float_11s.jpg	0	0.0	0	262.759105491918	262.809089364018	0.0499838721007109	220761
220.861	50	527	0	0	scrabble	1385	218	1	stimuli\scrabble\scrabble_12s.jpg	11	-1	1	0	scrabble_12s.jpg	0	0.0	0	262.85910980729403	262.909100994002	0.0499911867082119	220861
220.961	50	528	0	0	souffle	1498	219	1	stimuli\souffle\souffle_02s.jpg	1	-1	1	0	souffle_02s.jpg	0	0.0	0	262.959114123136	263.009098482318	0.0499843591824174	220961
221.061	50	529	0	0	centerpiece	295	220	1	stimuli\centerpiece\centerpiece_11s.jpg	10	-1	1	0	centerpiece_11s.jpg	0	0.0	0	263.05911673186296	263.109096459113	0.0499797272495925	221061
221.161	50	530	0	0	toga	1669	221	1	stimuli\toga\toga_01b.jpg	0	-1	1	0	toga_01b.jpg	0	0.0	0	263.15912421653	263.209101993591	0.0499777770601213	221161
221.261	50	531	0	0	truck	1720	222	1	stimuli\truck\truck_08s.jpg	7	-1	1	0	truck_08s.jpg	0	0.0	0	263.25911926711	263.309101432562	0.0499821654520929	221261
221.361	50	532	0	0	scanner	1375	223	1	stimuli\scanner\scanner_01b.jpg	0	-1	1	0	scanner_01b.jpg	0	0.0	0	263.359123582952	263.409108917695	0.0499853347428143	221361
221.461	50	533	0	0	patch	1125	224	1	stimuli\patch\patch_05s.jpg	4	-1	1	0	patch_05s.jpg	0	0.0	0	263.459127898328	263.50911152642203	0.0499836280941963	221461
221.561	50	534	0	0	quill	1263	225	1	stimuli\quill\quill_01b.jpg	0	-1	1	0	quill_01b.jpg	0	0.0	0	263.559133920353	263.609118523542	0.0499846031889319	221561
221.661	50	535	0	0	water_cooler	1788	226	1	stimuli\water_cooler\water_cooler_02s.jpg	1	-1	1	0	water_cooler_02s.jpg	0	0.0	0	263.659156033769	263.709111867473	0.0499558337032795	221661
221.761	50	536	0	0	hatbox	758	227	1	stimuli\hatbox\hatbox_07s.jpg	6	-1	1	0	hatbox_07s.jpg	0	0.0	0	263.759133530315	263.809113257565	0.0499797272495925	221761
221.861	50	537	0	0	notebook	1064	228	1	stimuli\notebook\notebook_03s.jpg	2	-1	1	0	notebook_03s.jpg	0	0.0	0	263.859138333239	263.909119035583	0.0499807023443282	221861
221.961	50	538	0	0	tank2	1621	229	1	stimuli\tank2\tank2_06s.jpg	5	-1	1	0	tank2_06s.jpg	0	0.0	0	263.959145086817	264.00912066921603	0.0499755823984742	221961
222.061	50	539	0	0	headband	762	230	1	stimuli\headband\headband_09s.jpg	8	-1	1	0	headband_09s.jpg	0	0.0	0	264.059145501349	264.109123277944	0.049977776594460004	222061
222.161	50	540	0	0	spider	1513	231	1	stimuli\spider\spider_12n.jpg	11	-1	1	0	spider_12n.jpg	1	0.0	0	264.159147622529	264.209128812421	0.049981189891696	222161
222.261	50	541	0	0	bolt	159	232	1	stimuli\bolt\bolt_04s.jpg	3	-1	1	0	bolt_04s.jpg	0	0.0	0	264.259147305507	264.309127520304	0.0499802147969604	222261
222.361	50	542	0	0	baton2	93	233	1	stimuli\baton2\baton2_01s.jpg	0	-1	1	0	baton2_01s.jpg	0	0.0	0	264.359155521728	264.40915377857203	0.0499982568435371	222361
222.461	50	543	0	0	bouquet	173	234	1	stimuli\bouquet\bouquet_11s.jpg	10	-1	1	0	bouquet_11s.jpg	0	0.0	0	264.45915301051	264.509134444408	0.0499814338982105	222461
222.561	50	544	0	0	pastry	1124	235	1	stimuli\pastry\pastry_11s.jpg	10	-1	1	0	pastry_11s.jpg	0	0.0	0	264.559157813434	264.609140466433	0.0499826529994607	222561
222.661	50	545	0	0	grenade	713	236	1	stimuli\grenade\grenade_12s.jpg	11	-1	1	0	grenade_12s.jpg	0	0.0	0	264.65916091017397	264.709146000911	0.0499850907362998	222661
222.761	50	546	0	0	nutcracker	1067	237	1	stimuli\nutcracker\nutcracker_09s.jpg	8	-1	1	0	nutcracker_09s.jpg	0	0.0	0	264.75916766328703	264.809143489692	0.0499758264049888	222761
222.861	50	547	0	0	baby	46	238	1	stimuli\baby\baby_01b.jpg	0	-1	1	0	baby_01b.jpg	0	0.0	0	264.85916759027197	264.90914390422404	0.0499763139523566	222861
222.961	50	548	0	0	ice_pack	820	239	1	stimuli\ice_pack\ice_pack_02s.jpg	1	-1	1	0	ice_pack_02s.jpg	0	0.0	0	264.959164103959	265.009149438702	0.0499853347428143	222961
223.061	50	549	0	0	payphone	1127	240	1	stimuli\payphone\payphone_02s.jpg	1	-1	1	0	payphone_02s.jpg	0	0.0	0	265.059171588626	265.109154485632	0.0499828970059752	223061
223.161	50	550	0	0	tarp	1628	241	1	stimuli\tarp\tarp_06s.jpg	5	-1	1	0	tarp_06s.jpg	0	0.0	0	265.159175904468	265.209153924603	0.0499780201353133	223161
223.261	50	551	0	0	tripod	1714	242	1	stimuli\tripod\tripod_05s.jpg	4	-1	1	0	tripod_05s.jpg	0	0.0	0	265.259179731831	265.309154583141	0.0499748513102531	223261
223.361	50	552	0	0	mosquito_net	1021	243	1	stimuli\mosquito_net\mosquito_net_10s.jpg	9	-1	1	0	mosquito_net_10s.jpg	0	0.0	0	265.359176489525	265.409159873612	0.0499833840876818	223361
223.461	50	553	0	0	grits	717	244	1	stimuli\grits\grits_06s.jpg	5	-1	1	0	grits_06s.jpg	0	0.0	0	265.45918568084	265.50916248233995	0.0499768014997244	223461
223.561	50	554	0	0	chili	327	245	1	stimuli\chili\chili_02s.jpg	1	-1	1	0	chili_02s.jpg	0	0.0	0	265.55918755848	265.60916460352	0.0499770450405777	223561
223.661	50	555	0	0	anklet	23	246	1	stimuli\anklet\anklet_07s.jpg	6	-1	1	0	anklet_07s.jpg	0	0.0	0	265.6591887041	265.70917282020696	0.0499841161072254	223661
223.761	50	556	0	0	chicken_wire	324	247	1	stimuli\chicken_wire\chicken_wire_05s.jpg	4	-1	1	0	chicken_wire_05s.jpg	0	0.0	0	265.75918619288103	265.809172503185	0.0499863103032112	223761
223.861	50	557	0	0	sling	1466	248	1	stimuli\sling\sling_08s.jpg	7	-1	1	0	sling_08s.jpg	0	0.0	0	265.859190752264	265.909172917716	0.0499821654520929	223861
223.961	50	558	0	0	mint	1004	249	1	stimuli\mint\mint_08s.jpg	7	-1	1	0	mint_08s.jpg	0	0.0	0	265.959192873444	266.00917552644404	0.0499826529994607	223961
224.061	50	559	0	0	juicer1	855	250	1	stimuli\juicer1\juicer1_08s.jpg	7	-1	1	0	juicer1_08s.jpg	0	0.0	0	266.059194507077	266.109178622719	0.0499841156415641	224061
224.161	50	560	0	0	stretcher	1572	251	1	stimuli\stretcher\stretcher_07s.jpg	6	-1	1	0	stretcher_07s.jpg	0	0.0	0	266.159196140245	266.20918464474397	0.049988504499197	224161
224.261	50	561	0	0	earwig	541	252	1	stimuli\earwig\earwig_06n.jpg	5	-1	1	0	earwig_06n.jpg	0	0.0	0	266.259203381371	266.309186521918	0.0499831405468285	224261
224.361	50	562	0	0	toucan	1690	253	1	stimuli\toucan\toucan_11s.jpg	10	-1	1	0	toucan_11s.jpg	0	0.0	0	266.359205746558	266.40918596135504	0.0499802147969604	224361
224.461	50	563	0	0	blimp	139	254	1	stimuli\blimp\blimp_10s.jpg	9	-1	1	0	blimp_10s.jpg	0	0.0	0	266.459207867738	266.509188326541	0.0499804588034749	224461
224.561	50	564	0	0	aardvark	0	255	1	stimuli\aardvark\aardvark_12s.jpg	11	-1	1	0	aardvark_12s.jpg	0	0.0	0	266.559210720006	266.609191422816	0.0499807028099895	224561
224.661	50	565	0	0	french_fries	641	256	1	stimuli\french_fries\french_fries_08s.jpg	7	-1	1	0	french_fries_08s.jpg	0	0.0	0	266.65921406028804	266.709191837348	0.0499777770601213	224661
224.761	50	566	0	0	horseshoe	799	257	1	stimuli\horseshoe\horseshoe_10s.jpg	9	-1	1	0	horseshoe_10s.jpg	0	0.0	0	266.759216913022	266.809198834468	0.0499819214455783	224761
224.861	50	567	0	0	duct_tape	528	258	1	stimuli\duct_tape\duct_tape_08s.jpg	7	-1	1	0	duct_tape_08s.jpg	0	0.0	0	266.859218790196	266.909207050689	0.0499882604926825	224861
224.961	50	568	0	0	remote_control	1302	259	1	stimuli\remote_control\remote_control_09s.jpg	8	-1	1	0	remote_control_09s.jpg	0	0.0	0	266.959220911376	267.009199419525	0.0499785081483424	224961
225.061	50	569	0	0	coffee_pot	380	260	1	stimuli\coffee_pot\coffee_pot_03s.jpg	2	-1	1	0	coffee_pot_03s.jpg	0	0.0	0	267.059222789016	267.109209830407	0.0499870413914323	225061
225.161	50	570	0	0	bucket	209	261	1	stimuli\bucket\bucket_02n.jpg	1	-1	1	0	bucket_02n.jpg	0	0.0	0	267.15922783547995	267.209208050743	0.0499802152626216	225161
225.261	50	571	0	0	locket	942	262	1	stimuli\locket\locket_05s.jpg	4	-1	1	0	locket_05s.jpg	0	0.0	0	267.25923263886904	267.309212853666	0.0499802147969604	225261
225.361	50	572	0	0	dryer	524	263	1	stimuli\dryer\dryer_07s.jpg	6	-1	1	0	dryer_07s.jpg	0	0.0	0	267.359236466698	267.409212780651	0.0499763139523566	225361
225.461	50	573	0	0	comb	389	264	1	stimuli\comb\comb_05s.jpg	4	-1	1	0	comb_05s.jpg	0	0.0	0	267.459232736379	267.509215389378	0.0499826529994607	225461
225.561	50	574	0	0	football	629	265	1	stimuli\football\football_05s.jpg	4	-1	1	0	football_05s.jpg	0	0.0	0	267.559239489958	267.60921629145696	0.0499768014997244	225561
225.661	50	575	0	0	sifter	1443	266	1	stimuli\sifter\sifter_03s.jpg	2	-1	1	0	sifter_03s.jpg	0	0.0	0	267.659239660483	267.709223776124	0.0499841156415641	225661
225.761	50	576	0	0	bandage	66	267	1	stimuli\bandage\bandage_08s.jpg	7	-1	1	0	bandage_08s.jpg	0	0.0	0	267.75924446340696	267.809238819405	0.0499943559989333	225761
225.861	50	577	0	0	cloud	364	268	1	stimuli\cloud\cloud_06s.jpg	5	-1	1	0	cloud_06s.jpg	0	0.0	0	267.85924658458697	267.90922704339	0.0499804588034749	225861
225.961	50	578	0	0	groundhog	718	269	1	stimuli\groundhog\groundhog_01b.jpg	0	-1	1	0	groundhog_01b.jpg	0	0.0	0	267.95924529247003	268.00922770146303	0.0499824089929461	225961
226.061	50	579	0	0	ladder	886	270	1	stimuli\ladder\ladder_10s.jpg	9	-1	1	0	ladder_10s.jpg	0	0.0	0	268.05925033939997	268.109230554197	0.0499802147969604	226061
226.161	50	580	0	0	kettle	868	271	1	stimuli\kettle\kettle_11s.jpg	10	-1	1	0	kettle_11s.jpg	0	0.0	0	268.159254654776	268.20923560112703	0.0499809463508427	226161
226.261	50	581	0	0	file1	583	272	1	stimuli\file1\file1_11s.jpg	10	-1	1	0	file1_11s.jpg	0	0.0	0	268.25925653195	268.30923552764597	0.0499789956957102	226261
226.362	50	582	0	0	lab_coat	885	273	1	stimuli\lab_coat\lab_coat_01b.jpg	0	-1	1	0	lab_coat_01b.jpg	0	0.0	0	268.35926157887997	268.409242037684	0.0499804588034749	226362
226.462	50	583	0	0	orange	1078	274	1	stimuli\orange\orange_05s.jpg	4	-1	1	0	orange_05s.jpg	0	0.0	0	268.459262968507	268.509247572161	0.0499846036545932	226462
226.562	50	584	0	0	bow2	175	275	1	stimuli\bow2\bow2_06s.jpg	5	-1	1	0	bow2_06s.jpg	0	0.0	0	268.55926167639	268.609243841842	0.0499821654520929	226562
226.662	50	585	0	0	stick	1552	276	1	stimuli\stick\stick_07s.jpg	6	-1	1	0	stick_07s.jpg	0	0.0	0	268.659264041577	268.709249863867	0.0499858222901821	226662
226.762	50	586	0	0	apple_tree	31	277	1	stimuli\apple_tree\apple_tree_03s.jpg	2	-1	1	0	apple_tree_03s.jpg	0	0.0	0	268.759268600494	268.809250521939	0.0499819214455783	226762
226.862	50	587	0	0	jar	840	278	1	stimuli\jar\jar_07s.jpg	6	-1	1	0	jar_07s.jpg	0	0.0	0	268.859270721674	268.90925264312	0.0499819214455783	226862
226.962	50	588	0	0	coral	406	279	1	stimuli\coral\coral_08s.jpg	7	-1	1	0	coral_08s.jpg	0	0.0	0	268.959276987705	269.009257202502	0.0499802147969604	226962
227.062	50	589	0	0	cake	237	280	1	stimuli\cake\cake_03s.jpg	2	-1	1	0	cake_03s.jpg	0	0.0	0	269.059275451582	269.109258592129	0.0499831405468285	227062
227.162	50	590	0	0	magnifying_glass	958	281	1	stimuli\magnifying_glass\magnifying_glass_02s.jpg	1	-1	1	0	magnifying_glass_02s.jpg	0	0.0	0	269.159280742519	269.209261688404	0.0499809458851814	227162
227.262	50	591	0	0	yarn	1846	282	1	stimuli\yarn\yarn_08s.jpg	7	-1	1	0	yarn_08s.jpg	0	0.0	0	269.259279449936	269.309264297597	0.0499848476611078	227262
227.362	50	592	0	0	leopard	917	283	1	stimuli\leopard\leopard_05s.jpg	4	-1	1	0	leopard_05s.jpg	0	0.0	0	269.35928571596696	269.409269832075	0.0499841161072254	227362
227.462	50	593	0	0	mustache	1043	284	1	stimuli\mustache\mustache_11s.jpg	10	-1	1	0	mustache_11s.jpg	0	0.0	0	269.45929027535	269.509268295951	0.0499780206009746	227462
227.562	50	594	0	0	tiara	1655	285	1	stimuli\tiara\tiara_01b.jpg	0	-1	1	0	tiara_01b.jpg	0	0.0	0	269.55929117742903	269.609271392226	0.0499802147969604	227562
227.662	50	595	0	0	compass	392	286	1	stimuli\compass\compass_04s.jpg	3	-1	1	0	compass_04s.jpg	0	0.0	0	269.659292811062	269.709275707603	0.04998289654031401	227662
227.762	50	596	0	0	funnel	649	287	1	stimuli\funnel\funnel_05s.jpg	4	-1	1	0	funnel_05s.jpg	0	0.0	0	269.75929785752703	269.809276609682	0.0499787521548569	227762
227.862	50	597	0	0	wallet	1776	288	1	stimuli\wallet\wallet_07s.jpg	6	-1	1	0	wallet_07s.jpg	0	0.0	0	269.859295102768	269.909281656612	0.0499865538440645	227862
227.962	50	598	0	0	shoe_polish	1424	289	1	stimuli\shoe_polish\shoe_polish_03s.jpg	2	-1	1	0	shoe_polish_03s.jpg	0	0.0	0	269.959303075448	270.00928133959	0.0499782641418278	227962
228.062	50	599	0	0	asparagus	42	290	1	stimuli\asparagus\asparagus_07s.jpg	6	-1	1	0	asparagus_07s.jpg	0	0.0	0	270.059304221068	270.109285898972	0.0499816779047251	228062
228.162	50	600	0	0	cheese	312	291	1	stimuli\cheese\cheese_04s.jpg	3	-1	1	0	cheese_04s.jpg	0	0.0	0	270.159306098707	270.209288995247	0.04998289654031401	228162
228.262	50	601	0	0	rattlesnake	1288	292	1	stimuli\rattlesnake\rattlesnake_11s.jpg	10	-1	1	0	rattlesnake_11s.jpg	0	0.0	0	270.25930748833304	270.309289409779	0.0499819214455783	228262
228.362	50	602	0	0	nightstand	1059	293	1	stimuli\nightstand\nightstand_05s.jpg	4	-1	1	0	nightstand_05s.jpg	0	0.0	0	270.359310828615	270.4092917745	0.0499809458851814	228362
228.462	50	603	0	0	mattress	985	294	1	stimuli\mattress\mattress_02s.jpg	1	-1	1	0	mattress_02s.jpg	0	0.0	0	270.45933269802504	270.509299503639	0.04996680561453099	228462
228.562	50	604	0	0	trolley	1715	295	1	stimuli\trolley\trolley_09s.jpg	8	-1	1	0	trolley_09s.jpg	0	0.0	0	270.559318727814	270.609299674165	0.0499809463508427	228562
228.662	50	605	0	0	oatmeal	1069	296	1	stimuli\oatmeal\oatmeal_08s.jpg	7	-1	1	0	oatmeal_08s.jpg	0	0.0	0	270.659323774744	270.709302038886	0.0499782641418278	228662
228.762	50	606	0	0	horn	797	297	1	stimuli\horn\horn_01b.jpg	0	-1	1	0	horn_01b.jpg	0	0.0	0	270.759320531972	270.809306842275	0.0499863103032112	228762
228.862	50	607	0	0	watering_can	1792	298	1	stimuli\watering_can\watering_can_03s.jpg	2	-1	1	0	watering_can_03s.jpg	0	0.0	0	270.859328992199	270.909306525253	0.0499775330536067	228862
