onset	duration	eventnumber	blocksequencenumber	isteststim	object	objectnumber	presentationnumber	sequencenumber	stim	stimnumber	teststimnumber	withinsequencenumber	istarget	stimname	response	rt	correct	time_stimon	time_stimoff	stimdur	sample
65.017	50	0	0	0	anteater	25	0	0	stimuli\anteater\anteater_07n.jpg	6	-1	0	0	anteater_07n.jpg	1	0.0	0	49.3138852046686	49.3638518027728	0.0499665981042199	65017
65.117	50	1	0	0	makeup	961	1	0	stimuli\makeup\makeup_05s.jpg	4	-1	0	0	makeup_05s.jpg	0	0.0	0	49.4138708199025	49.4638488770579	0.0499780571553856	65117
65.217	50	2	0	0	button1	230	2	0	stimuli\button1\button1_01b.jpg	0	-1	0	0	button1_01b.jpg	0	0.0	0	49.5138715513167	49.563852777995606	0.0499812266789377	65217
65.317	50	3	0	0	stove2	1564	3	0	stimuli\stove2\stove2_02s.jpg	1	-1	0	0	stove2_02s.jpg	0	0.0	0	49.61388569232079	49.6638578979764	0.0499722056556493	65317
65.417	50	4	0	0	hot_tub	804	4	0	stimuli\hot_tub\hot_tub_07s.jpg	6	-1	0	0	hot_tub_07s.jpg	0	0.0	0	49.713887155172394	49.7638688694569	0.0499817142845131	65417
65.517	50	5	0	0	cauliflower	288	5	0	stimuli\cauliflower\cauliflower_04s.jpg	3	-1	0	0	cauliflower_04s.jpg	0	0.0	0	49.813887398981	49.864362340187704	0.0504749412066303	65517
65.617	50	6	0	0	seaweed	1400	6	0	stimuli\seaweed\seaweed_05s.jpg	4	-1	0	0	seaweed_05s.jpg	0	0.0	0	49.9138730142149	49.963846438913606	0.0499734246986918	65617
65.717	50	7	0	0	bat2	88	7	0	stimuli\bat2\bat2_10s.jpg	9	-1	0	0	bat2_10s.jpg	0	0.0	0	50.013910317095004	50.063890568504604	0.0499802514095791	65717
65.817	50	8	0	0	cat	284	8	0	stimuli\cat\cat_07s.jpg	6	-1	0	0	cat_07s.jpg	0	0.0	0	50.113913242763395	50.163869113253895	0.0499558704905212	65817
65.917	50	9	0	0	zebra	1851	9	0	stimuli\zebra\zebra_05s.jpg	4	-1	0	0	zebra_05s.jpg	0	0.0	0	50.213888861821005	50.2638847170747	0.0499958552536555	65917
66.017	50	10	0	0	paint	1096	10	0	stimuli\paint\paint_01b.jpg	0	-1	0	0	paint_01b.jpg	0	0.0	0	50.313902027555706	50.363874233269605	0.049972205713857	66017
66.117	50	11	0	0	dartboard	474	11	0	stimuli\dartboard\dartboard_10s.jpg	9	-1	0	0	dartboard_10s.jpg	0	0.0	0	50.4138944694423	50.4638774027699	0.0499829333275557	66117
66.217	50	12	0	0	skirt	1457	12	0	stimuli\skirt\skirt_01b.jpg	0	-1	0	0	skirt_01b.jpg	0	0.0	0	50.513900077086895	50.563909341814	0.0500092647271231	66217
66.317	50	13	0	0	stew	1551	13	0	stimuli\stew\stew_06s.jpg	5	-1	0	0	stew_06s.jpg	0	0.0	0	50.61392421420901	50.6638771589496	0.049952944740653	66317
66.417	50	14	0	0	catapult	285	14	0	stimuli\catapult\catapult_07s.jpg	6	-1	0	0	catapult_07s.jpg	0	0.0	0	50.713900808477796	50.7638830103679	0.0499822018900886	66417
66.517	50	15	0	0	chalice	301	15	0	stimuli\chalice\chalice_06s.jpg	5	-1	0	0	chalice_06s.jpg	0	0.0	0	50.813907147559796	50.863887642801295	0.0499804952414706	66517
66.617	50	16	0	0	splinter	1516	16	0	stimuli\splinter\splinter_10s.jpg	9	-1	0	0	splinter_10s.jpg	0	0.0	0	50.913907878974	50.9638861799031	0.0499783009290695	66617
66.717	50	17	0	0	bandanna	67	17	0	stimuli\bandanna\bandanna_06s.jpg	5	-1	0	0	bandanna_06s.jpg	0	0.0	0	51.0139359171153	51.0638932504226	0.0499573333072476	66717
66.817	50	18	0	0	sandpaper	1356	18	0	stimuli\sandpaper\sandpaper_06s.jpg	5	-1	0	0	sandpaper_06s.jpg	0	0.0	0	51.113919338036794	51.1638947132742	0.049975375237409005	66817
66.917	50	19	0	0	bikini	124	19	0	stimuli\bikini\bikini_05s.jpg	4	-1	0	0	bikini_05s.jpg	0	0.0	0	51.2139154370525	51.263912511349204	0.049997074296698	66917
67.017	50	20	0	0	cash_machine	279	20	0	stimuli\cash_machine\cash_machine_12s.jpg	11	-1	0	0	cash_machine_12s.jpg	0	0.0	0	51.3139190942165	51.3639020275441	0.0499829333275557	67017
67.117	50	21	0	0	dart	473	21	0	stimuli\dart\dart_12s.jpg	11	-1	0	0	dart_12s.jpg	0	0.0	0	51.413916656107205	51.4639000770403	0.0499834209331311	67117
67.217	50	22	0	0	paintbrush	1097	22	0	stimuli\paintbrush\paintbrush_05s.jpg	4	-1	0	0	paintbrush_05s.jpg	0	0.0	0	51.5139215323143	51.563902515161296	0.0499809828470461	67217
67.317	50	23	0	0	soup	1499	23	0	stimuli\soup\soup_02s.jpg	1	-1	0	0	soup_02s.jpg	0	0.0	0	51.613925677083905	51.6639069037628	0.0499812266789377	67317
67.417	50	24	0	0	lens	916	24	0	stimuli\lens\lens_03s.jpg	2	-1	0	0	lens_03s.jpg	0	0.0	0	51.713928115204894	51.7639359171153	0.0500078019103967	67417
67.517	50	25	0	0	onion	1077	25	0	stimuli\onion\onion_09s.jpg	8	-1	0	0	onion_09s.jpg	0	0.0	0	51.81393445422871	51.8639073913801	0.049972937151324004	67517
67.617	50	26	0	0	jelly_bean	844	26	0	stimuli\jelly_bean\jelly_bean_11n.jpg	10	-1	0	0	jelly_bean_11n.jpg	0	0.0	0	51.9139366485178	51.963925433286896	0.0499887847690843	67617
67.717	50	27	0	0	costume	419	27	0	stimuli\costume\costume_04s.jpg	3	-1	0	0	costume_04s.jpg	0	0.0	0	52.0139434752055	52.0639417685452	0.0499982933397405	67717
67.817	50	28	0	0	police_car	1214	28	0	stimuli\police_car\police_car_12s.jpg	11	-1	0	0	police_car_12s.jpg	0	0.0	0	52.113965661847	52.163947376131496	0.0499817142845131	67817
67.917	50	29	0	0	braid	190	29	0	stimuli\braid\braid_11s.jpg	10	-1	0	0	braid_11s.jpg	0	0.0	0	52.2139517647447	52.2639344542404	0.0499826894956641	67917
68.017	50	30	0	0	calf1	241	30	0	stimuli\calf1\calf1_11s.jpg	10	-1	0	0	calf1_11s.jpg	0	0.0	0	52.3139464008855	52.3639259209158	0.0499795200303197	68017
68.117	50	31	0	0	ashtray	41	31	0	stimuli\ashtray\ashtray_06s.jpg	5	-1	0	0	ashtray_06s.jpg	0	0.0	0	52.41397712094479	52.4639303094591	0.0499531885143369	68117
68.217	50	32	0	0	submarine	1577	32	0	stimuli\submarine\submarine_08s.jpg	7	-1	0	0	submarine_08s.jpg	0	0.0	0	52.513951033295605	52.5639407932758	0.0499897599802352	68217
68.317	50	33	0	0	wind_chimes	1817	33	0	stimuli\wind_chimes\wind_chimes_07s.jpg	6	-1	0	0	wind_chimes_07s.jpg	0	0.0	0	52.6139678561594	52.663945425651	0.0499775694916025	68317
68.417	50	34	0	0	iguana	825	34	0	stimuli\iguana\iguana_02s.jpg	1	-1	0	0	iguana_02s.jpg	0	0.0	0	52.71396663709311	52.763986873324	0.050020236230921	68417
68.517	50	35	0	0	gramophone	699	35	0	stimuli\gramophone\gramophone_06s.jpg	5	-1	0	0	gramophone_06s.jpg	0	0.0	0	52.8139734637807	52.8639537151903	0.0499802514095791	68517
68.617	50	36	0	0	coral	406	36	0	stimuli\coral\coral_10s.jpg	9	-1	0	0	coral_10s.jpg	0	0.0	0	52.9139905304764	52.9639661494875	0.0499756190110929	68617
68.717	50	37	0	0	cotton_candy	421	37	0	stimuli\cotton_candy\cotton_candy_02s.jpg	1	-1	0	0	cotton_candy_02s.jpg	0	0.0	0	53.0139893114101	53.0639710256946	0.0499817142845131	68717
68.817	50	38	0	0	girl	676	38	0	stimuli\girl\girl_02s.jpg	1	-1	0	0	girl_02s.jpg	0	0.0	0	53.1139924809104	53.163972732378205	0.0499802514677867	68817
68.917	50	39	0	0	hot-water_bottle	802	39	0	stimuli\hot-water_bottle\hot-water_bottle_04s.jpg	3	-1	0	0	hot-water_bottle_04s.jpg	0	0.0	0	53.2139671247569	53.2639473761665	0.0499802514095791	68917
69.017	50	40	0	0	handkerchief	747	40	0	stimuli\handkerchief\handkerchief_09s.jpg	8	-1	0	0	handkerchief_09s.jpg	0	0.0	0	53.3139720009058	53.36395030183479	0.0499783009290695	69017
69.117	50	41	0	0	pool_table	1222	41	0	stimuli\pool_table\pool_table_03s.jpg	2	-1	0	0	pool_table_03s.jpg	0	0.0	0	53.4139834599919	53.463964199006995	0.0499807390151545	69117
69.217	50	42	0	0	donkey	504	42	0	stimuli\donkey\donkey_10s.jpg	9	-1	0	0	donkey_10s.jpg	0	0.0	0	53.513993212371105	53.5639585913741	0.0499653790029697	69217
69.317	50	43	0	0	cranberry	430	43	0	stimuli\cranberry\cranberry_01b.jpg	0	-1	0	0	cranberry_01b.jpg	0	0.0	0	53.6139837037772	53.6639598104521	0.0499761066748761	69317
69.417	50	44	0	0	snowman	1482	44	0	stimuli\snowman\snowman_01b.jpg	0	-1	0	0	snowman_01b.jpg	0	0.0	0	53.713983947585795	53.7639656618703	0.0499817142845131	69417
69.517	50	45	0	0	crossbow	444	45	0	stimuli\crossbow\crossbow_06s.jpg	5	-1	0	0	crossbow_06s.jpg	0	0.0	0	53.81398589810121	53.8639639551984	0.049978057097178	69517
69.617	50	46	0	0	joystick	852	46	0	stimuli\joystick\joystick_07s.jpg	6	-1	0	0	joystick_07s.jpg	0	0.0	0	53.913984435203	53.9639661494875	0.0499817142845131	69617
69.717	50	47	0	0	plate	1197	47	0	stimuli\plate\plate_05s.jpg	4	-1	0	0	plate_05s.jpg	0	0.0	0	54.013991018058704	54.06397078186271	0.0499797638040036	69717
69.817	50	48	0	0	sandwich	1357	48	0	stimuli\sandwich\sandwich_09s.jpg	8	-1	0	0	sandwich_09s.jpg	0	0.0	0	54.113993943785296	54.1639746828005	0.0499807390151545	69817
69.917	50	49	0	0	parrot	1121	49	0	stimuli\parrot\parrot_01b.jpg	0	-1	0	0	parrot_01b.jpg	0	0.0	0	54.2139990638243	54.263976877089604	0.0499778132652864	69917
70.017	50	50	0	0	bib	122	50	0	stimuli\bib\bib_11s.jpg	10	-1	0	0	bib_11s.jpg	0	0.0	0	54.313997113320504	54.36398492282021	0.0499878094997257	70017
70.117	50	51	0	0	bear	105	51	0	stimuli\bear\bear_05s.jpg	4	-1	0	0	bear_05s.jpg	0	0.0	0	54.414003208570605	54.463983703812104	0.0499804952414706	70117
70.217	50	52	0	0	trophy	1717	52	0	stimuli\trophy\trophy_08s.jpg	7	-1	0	0	trophy_08s.jpg	0	0.0	0	54.5140029647737	54.5639824847458	0.049979519972112	70217
70.317	50	53	0	0	coaster	368	53	0	stimuli\coaster\coaster_05s.jpg	4	-1	0	0	coaster_05s.jpg	0	0.0	0	54.614010279066896	54.6639885799959	0.0499783009290695	70317
70.417	50	54	0	0	gurney	728	54	0	stimuli\gurney\gurney_06s.jpg	5	-1	0	0	gurney_06s.jpg	0	0.0	0	54.7140195437823	54.7640041838167	0.0499846400343813	70417
70.517	50	55	0	0	carousel	275	55	0	stimuli\carousel\carousel_09s.jpg	8	-1	0	0	carousel_09s.jpg	0	0.0	0	54.8140246638213	54.8639976009144	0.0499729370931163	70517
70.617	50	56	0	0	corsage	417	56	0	stimuli\corsage\corsage_01b.jpg	0	-1	0	0	corsage_01b.jpg	0	0.0	0	54.914016618102295	54.9640088161686	0.0499921980663203	70617
70.717	50	57	0	0	chalk	302	57	0	stimuli\chalk\chalk_03s.jpg	2	-1	0	0	chalk_03s.jpg	0	0.0	0	55.014032953360605	55.0640124733327	0.049979519972112	70717
70.817	50	58	0	0	trident	1712	58	0	stimuli\trident\trident_01b.jpg	0	-1	0	0	trident_01b.jpg	0	0.0	0	55.11403514764971	55.1640158866649	0.0499807390151545	70817
70.917	50	59	0	0	taxi	1630	59	0	stimuli\taxi\taxi_07s.jpg	6	-1	0	0	taxi_07s.jpg	0	0.0	0	55.2140336847515	55.26401978760261	0.0499861028511077	70917
71.017	50	60	0	0	hearing_aid	770	60	0	stimuli\hearing_aid\hearing_aid_02s.jpg	1	-1	0	0	hearing_aid_02s.jpg	0	0.0	0	55.31403758574739	55.364021738118	0.0499841523705982	71017
71.117	50	61	0	0	bamboo	62	61	0	stimuli\bamboo\bamboo_10s.jpg	9	-1	0	0	bamboo_10s.jpg	0	0.0	0	55.4140397800365	55.464034416189	0.0499946361524053	71117
71.217	50	62	0	0	bow3	176	62	0	stimuli\bow3\bow3_03s.jpg	2	-1	0	0	bow3_03s.jpg	0	0.0	0	55.5140310028801	55.5640436809626	0.0500126780825667	71217
71.317	50	63	0	0	spareribs	1505	63	0	stimuli\spareribs\spareribs_02s.jpg	1	-1	0	0	spareribs_02s.jpg	0	0.0	0	55.614060747669996	55.6640244200244	0.0499636723543517	71317
71.417	50	64	0	0	outfit	1087	64	0	stimuli\outfit\outfit_05s.jpg	4	-1	0	0	outfit_05s.jpg	0	0.0	0	55.7140380733181	55.764013448555495	0.049975375237409005	71417
71.517	50	65	0	0	walnut	1778	65	0	stimuli\walnut\walnut_07s.jpg	6	-1	0	0	walnut_07s.jpg	0	0.0	0	55.8140397800016	55.864018324762604	0.0499785447609611	71517
71.617	50	66	0	0	lasagna	898	66	0	stimuli\lasagna\lasagna_02s.jpg	1	-1	0	0	lasagna_02s.jpg	0	0.0	0	55.91404002381021	55.964021494262894	0.0499814704526216	71617
71.717	50	67	0	0	rosary	1333	67	0	stimuli\rosary\rosary_09s.jpg	8	-1	0	0	rosary_09s.jpg	0	0.0	0	56.0140514828963	56.0640263704699	0.0499748875736259	71717
71.817	50	68	0	0	tick	1656	68	0	stimuli\tick\tick_02s.jpg	1	-1	0	0	tick_02s.jpg	0	0.0	0	56.114045143825905	56.164023444755	0.0499783009290695	71817
71.917	50	69	0	0	crowbar	447	69	0	stimuli\crowbar\crowbar_10s.jpg	9	-1	0	0	crowbar_10s.jpg	0	0.0	0	56.214046119072	56.2640275895246	0.0499814704526216	71917
72.017	50	70	0	0	coverall	425	70	0	stimuli\coverall\coverall_03s.jpg	2	-1	0	0	coverall_03s.jpg	0	0.0	0	56.31405197049029	56.3640375857358	0.0499856152455322	72017
72.117	50	71	0	0	tea	1631	71	0	stimuli\tea\tea_07s.jpg	6	-1	0	0	tea_07s.jpg	0	0.0	0	56.4140592847834	56.4640351476264	0.0499758628429845	72117
72.217	50	72	0	0	lab_coat	885	72	0	stimuli\lab_coat\lab_coat_03s.jpg	2	-1	0	0	lab_coat_03s.jpg	0	0.0	0	56.514055627630995	56.564037829521105	0.0499822018900886	72217
72.317	50	73	0	0	soldering_iron	1494	73	0	stimuli\soldering_iron\soldering_iron_09s.jpg	8	-1	0	0	soldering_iron_09s.jpg	0	0.0	0	56.6140590409632	56.664038073329706	0.0499790323665366	72317
72.417	50	74	0	0	hard_disk	752	74	0	stimuli\hard_disk\hard_disk_07s.jpg	6	-1	0	0	hard_disk_07s.jpg	0	0.0	0	56.7140634295647	56.7640451438492	0.0499817142845131	72417
72.517	50	75	0	0	confetti	396	75	0	stimuli\confetti\confetti_08s.jpg	7	-1	0	0	confetti_08s.jpg	0	0.0	0	56.814063917146996	56.864044412388495	0.0499804952414706	72517
72.617	50	76	0	0	glass	677	76	0	stimuli\glass\glass_09s.jpg	8	-1	0	0	glass_09s.jpg	0	0.0	0	56.914067818142904	56.9640485571581	0.0499807390151545	72617
72.717	50	77	0	0	rim	1312	77	0	stimuli\rim\rim_07s.jpg	6	-1	0	0	rim_07s.jpg	0	0.0	0	57.0140739133931	57.0640548962401	0.0499809828470461	72717
72.817	50	78	0	0	tool	1676	78	0	stimuli\tool\tool_02s.jpg	1	-1	0	0	tool_02s.jpg	0	0.0	0	57.1140739133698	57.164055871428005	0.0499819580581971	72817
72.917	50	79	0	0	crown	448	79	0	stimuli\crown\crown_01b.jpg	0	-1	0	0	crown_01b.jpg	0	0.0	0	57.2140783019131	57.2640534333768	0.0499751314637251	72917
73.017	50	80	0	0	meat	987	80	0	stimuli\meat\meat_03s.jpg	2	-1	0	0	meat_03s.jpg	0	0.0	0	57.3140778143425	57.3640719628893	0.0499941485468298	73017
73.117	50	81	0	0	basketball_hoop	84	81	0	stimuli\basketball_hoop\basketball_hoop_07s.jpg	6	-1	0	0	basketball_hoop_07s.jpg	0	0.0	0	57.414110728597706	57.4640756200533	0.0499648914556019	73117
73.217	50	82	0	0	earplug	539	82	0	stimuli\earplug\earplug_03s.jpg	2	-1	0	0	earplug_03s.jpg	0	0.0	0	57.5140924429288	57.5640751324245	0.0499826894956641	73217
73.317	50	83	0	0	goldfish	688	83	0	stimuli\goldfish\goldfish_09s.jpg	8	-1	0	0	goldfish_09s.jpg	0	0.0	0	57.6140873229015	57.6640683057485	0.0499809828470461	73317
73.417	50	84	0	0	fish	600	84	0	stimuli\fish\fish_10s.jpg	9	-1	0	0	fish_10s.jpg	0	0.0	0	57.714090736233594	57.76407440099871	0.0499836647650227	73417
73.517	50	85	0	0	goat	684	85	0	stimuli\goat\goat_03s.jpg	2	-1	0	0	goat_03s.jpg	0	0.0	0	57.8140936619602	57.864071231451796	0.0499775694916025	73517
73.617	50	86	0	0	pigeon	1171	86	0	stimuli\pigeon\pigeon_02s.jpg	1	-1	0	0	pigeon_02s.jpg	0	0.0	0	57.9140946372063	57.964071719092296	0.049977081886027	73617
73.717	50	87	0	0	hummingbird	811	87	0	stimuli\hummingbird\hummingbird_03s.jpg	2	-1	0	0	hummingbird_03s.jpg	0	0.0	0	58.0140970752691	58.064074157155105	0.049977081886027	73717
73.817	50	88	0	0	measuring_cup	986	88	0	stimuli\measuring_cup\measuring_cup_10s.jpg	9	-1	0	0	measuring_cup_10s.jpg	0	0.0	0	58.11410219530811	58.1640861038468	0.0499839085387066	73817
73.917	50	89	0	0	roller	1324	89	0	stimuli\roller\roller_08s.jpg	7	-1	0	0	roller_08s.jpg	0	0.0	0	58.2141012200736	58.2640817152569	0.049980495183263	73917
74.017	50	90	0	0	rope	1332	90	0	stimuli\rope\rope_05s.jpg	4	-1	0	0	rope_05s.jpg	0	0.0	0	58.314103901968295	58.3640863476321	0.0499824456637725	74017
74.117	50	91	0	0	wax	1795	91	0	stimuli\wax\wax_10s.jpg	9	-1	0	0	wax_10s.jpg	0	0.0	0	58.414106583863	58.4640926867141	0.0499861028511077	74117
74.217	50	92	0	0	fudge	647	92	0	stimuli\fudge\fudge_11s.jpg	10	-1	0	0	fudge_11s.jpg	0	0.0	0	58.5141141419881	58.564092686690906	0.0499785447027534	74217
74.317	50	93	0	0	cream	436	93	0	stimuli\cream\cream_04s.jpg	3	-1	0	0	cream_04s.jpg	0	0.0	0	58.614115117176	58.664092199062004	0.049977081886027	74317
74.417	50	94	0	0	stalagmite	1534	94	0	stimuli\stalagmite\stalagmite_04s.jpg	3	-1	0	0	stalagmite_04s.jpg	0	0.0	0	58.71411658008579	58.7640968314954	0.0499802514095791	74417
74.517	50	95	0	0	breadbox	195	95	0	stimuli\breadbox\breadbox_09s.jpg	8	-1	0	0	breadbox_09s.jpg	0	0.0	0	58.8141173115	58.864100488601295	0.0499831771012396	74517
74.617	50	96	0	0	taillight	1617	96	0	stimuli\taillight\taillight_10s.jpg	9	-1	0	0	taillight_10s.jpg	0	0.0	0	58.9141209686059	58.9641043895972	0.0499834209913388	74617
74.717	50	97	0	0	sundae	1582	97	0	stimuli\sundae\sundae_04s.jpg	3	-1	0	0	sundae_04s.jpg	0	0.0	0	59.0141238943324	59.0641058524488	0.0499819581164047	74717
74.817	50	98	0	0	food_processor	627	98	0	stimuli\food_processor\food_processor_04s.jpg	3	-1	0	0	food_processor_04s.jpg	0	0.0	0	59.1141241381411	59.164106583863	0.0499824457219802	74817
74.917	50	99	0	0	clothes	361	99	0	stimuli\clothes\clothes_12s.jpg	11	-1	0	0	clothes_12s.jpg	0	0.0	0	59.214129014348096	59.26410731527721	0.0499783009290695	74917
75.017	50	100	0	0	penholder	1146	100	0	stimuli\penholder\penholder_08s.jpg	7	-1	0	0	penholder_08s.jpg	0	0.0	0	59.3141382791218	59.3641153610079	0.049977081886027	75017
75.117	50	101	0	0	railing	1277	101	0	stimuli\railing\railing_01b.jpg	0	-1	0	0	railing_01b.jpg	0	0.0	0	59.41413657244989	59.46411316673039	0.0499765942804515	75117
75.217	50	102	0	0	paperweight	1117	102	0	stimuli\paperweight\paperweight_05s.jpg	4	-1	0	0	paperweight_05s.jpg	0	0.0	0	59.514137547696	59.564117555273704	0.0499800075776875	75217
75.317	50	103	0	0	trombone	1716	103	0	stimuli\trombone\trombone_11s.jpg	10	-1	0	0	trombone_11s.jpg	0	0.0	0	59.6141402295907	59.664119261957204	0.0499790323665366	75317
75.417	50	104	0	0	scoop	1381	104	0	stimuli\scoop\scoop_05s.jpg	4	-1	0	0	scoop_05s.jpg	0	0.0	0	59.7141441305284	59.7641290143365	0.0499848838080652	75417
75.517	50	105	0	0	fishnet_stockings	604	105	0	stimuli\fishnet_stockings\fishnet_stockings_07s.jpg	6	-1	0	0	fishnet_stockings_07s.jpg	0	0.0	0	59.8141475438606	59.8641270638909	0.0499795200303197	75517
75.617	50	106	0	0	brake	191	106	0	stimuli\brake\brake_05s.jpg	4	-1	0	0	brake_05s.jpg	0	0.0	0	59.9141441305401	59.964135597227106	0.0499914666870609	75617
75.717	50	107	0	0	clipboard	355	107	0	stimuli\clipboard\clipboard_10s.jpg	9	-1	0	0	clipboard_10s.jpg	0	0.0	0	60.0141536391457	60.064132671512205	0.0499790323665366	75717
75.817	50	108	0	0	computer	394	108	0	stimuli\computer\computer_11s.jpg	10	-1	0	0	computer_11s.jpg	0	0.0	0	60.114152176247394	60.1641336467583	0.0499814705108292	75817
75.917	50	109	0	0	balance_beam	58	109	0	stimuli\balance_beam\balance_beam_05s.jpg	4	-1	0	0	balance_beam_05s.jpg	0	0.0	0	60.214154370536605	60.2641358410474	0.0499814705108292	75917
76.017	50	110	0	0	tapestry	1625	110	0	stimuli\tapestry\tapestry_04s.jpg	3	-1	0	0	tapestry_04s.jpg	0	0.0	0	60.31415900297	60.364136328629705	0.0499773256597109	76017
76.117	50	111	0	0	potato	1231	111	0	stimuli\potato\potato_09s.jpg	8	-1	0	0	potato_09s.jpg	0	0.0	0	60.4141592467786	60.4641421800479	0.049982933269347996	76117
76.217	50	112	0	0	headrest	767	112	0	stimuli\headrest\headrest_08s.jpg	7	-1	0	0	headrest_08s.jpg	0	0.0	0	60.5141663172399	60.5641448620008	0.0499785447609611	76217
76.317	50	113	0	0	shoe_polish	1424	113	0	stimuli\shoe_polish\shoe_polish_04s.jpg	3	-1	0	0	shoe_polish_04s.jpg	0	0.0	0	60.614165829611	60.6641453495831	0.049979519972112	76317
76.417	50	114	0	0	vent	1758	114	0	stimuli\vent\vent_04s.jpg	3	-1	0	0	vent_04s.jpg	0	0.0	0	60.7141685115057	60.7641485191416	0.0499800076358952	76417
76.517	50	115	0	0	scale	1371	115	0	stimuli\scale\scale_08s.jpg	7	-1	0	0	scale_08s.jpg	0	0.0	0	60.8141750943614	60.864148275344604	0.0499731809832156	76517
76.617	50	116	0	0	ice-cream_cone	817	116	0	stimuli\ice-cream_cone\ice-cream_cone_12s.jpg	11	-1	0	0	ice-cream_cone_12s.jpg	0	0.0	0	60.9141729000839	60.964159002935	0.0499861028511077	76617
76.717	50	117	0	0	file1	583	117	0	stimuli\file1\file1_07s.jpg	6	-1	0	0	file1_07s.jpg	0	0.0	0	61.014182164857594	61.064189722936106	0.0500075580785051	76717
76.817	50	118	0	0	folder	625	118	0	stimuli\folder\folder_06s.jpg	5	-1	0	0	folder_06s.jpg	0	0.0	0	61.114183627709295	61.1641614410328	0.049977813323494	76817
76.917	50	119	0	0	roof_rack	1329	119	0	stimuli\roof_rack\roof_rack_10s.jpg	9	-1	0	0	roof_rack_10s.jpg	0	0.0	0	61.21418557816651	61.2641668048454	0.0499812266789377	76917
77.017	50	120	0	0	trough	1718	120	0	stimuli\trough\trough_12s.jpg	11	-1	0	0	trough_12s.jpg	0	0.0	0	61.3141885038931	61.36416875530271	0.0499802514095791	77017
77.117	50	121	0	0	cooler	403	121	0	stimuli\cooler\cooler_04s.jpg	3	-1	0	0	cooler_04s.jpg	0	0.0	0	61.4141892353655	61.4641665610252	0.0499773256597109	77117
77.217	50	122	0	0	cabinet	233	122	0	stimuli\cabinet\cabinet_07s.jpg	6	-1	0	0	cabinet_07s.jpg	0	0.0	0	61.51419533055739	61.5641709496267	0.0499756190693006	77217
77.317	50	123	0	0	limousine	931	123	0	stimuli\limousine\limousine_02s.jpg	1	-1	0	0	limousine_02s.jpg	0	0.0	0	61.614192892506296	61.6641724124784	0.049979519972112	77317
77.417	50	124	0	0	cornhusk	414	124	0	stimuli\cornhusk\cornhusk_02s.jpg	1	-1	0	0	cornhusk_02s.jpg	0	0.0	0	61.7141977686551	61.764178263896596	0.0499804952414706	77417
77.517	50	125	0	0	telephone_pole	1639	125	0	stimuli\telephone_pole\telephone_pole_12s.jpg	11	-1	0	0	telephone_pole_12s.jpg	0	0.0	0	61.8142021572567	61.86418094579129	0.049978788534645	77517
77.617	50	126	0	0	goalpost	683	126	0	stimuli\goalpost\goalpost_03s.jpg	2	-1	0	0	goalpost_03s.jpg	0	0.0	0	61.9142058144207	61.96418557816651	0.0499797637457959	77617
77.717	50	127	0	0	leek	910	127	0	stimuli\leek\leek_01b.jpg	0	-1	0	0	leek_01b.jpg	0	0.0	0	62.0142072772724	62.0641894791625	0.0499822018900886	77717
77.817	50	128	0	0	windowsill	1819	128	0	stimuli\windowsill\windowsill_05s.jpg	4	-1	0	0	windowsill_05s.jpg	0	0.0	0	62.1142094715615	62.1641943553695	0.0499848838080652	77817
77.917	50	129	0	0	taffy	1615	129	0	stimuli\taffy\taffy_12s.jpg	11	-1	0	0	taffy_12s.jpg	0	0.0	0	62.21421264106171	62.2641941115144	0.0499814704526216	77917
78.017	50	130	0	0	beachball	99	130	0	stimuli\beachball\beachball_09s.jpg	8	-1	0	0	beachball_09s.jpg	0	0.0	0	62.3142094715149	62.364192892506296	0.0499834209913388	78017
78.117	50	131	0	0	pepper2	1150	131	0	stimuli\pepper2\pepper2_10s.jpg	9	-1	0	0	pepper2_10s.jpg	0	0.0	0	62.414216542034396	62.464194111526005	0.0499775694916025	78117
78.217	50	132	0	0	sleeping_bag	1462	132	0	stimuli\sleeping_bag\sleeping_bag_04s.jpg	3	-1	0	0	sleeping_bag_04s.jpg	0	0.0	0	62.5142306829803	62.5642092277412	0.0499785447609611	78217
78.317	50	133	0	0	wine	1823	133	0	stimuli\wine\wine_03s.jpg	2	-1	0	0	wine_03s.jpg	0	0.0	0	62.6142453115899	62.6642016696278	0.049956358037889004	78317
78.417	50	134	0	0	eggbeater	548	134	0	stimuli\eggbeater\eggbeater_11s.jpg	10	-1	0	0	eggbeater_11s.jpg	0	0.0	0	62.71422556298779	62.764207033440506	0.0499814704526216	78417
78.517	50	135	0	0	brooch	202	135	0	stimuli\brooch\brooch_07s.jpg	6	-1	0	0	brooch_07s.jpg	0	0.0	0	62.8142284887144	62.86420849629211	0.0499800075776875	78517
78.617	50	136	0	0	revolver	1304	136	0	stimuli\revolver\revolver_01s.jpg	0	-1	0	0	revolver_01s.jpg	0	0.0	0	62.9142355591757	62.9642160544172	0.0499804952414706	78617
78.717	50	137	0	0	camcorder	244	137	0	stimuli\camcorder\camcorder_02s.jpg	1	-1	0	0	camcorder_02s.jpg	0	0.0	0	63.01423629058989	63.0642141039134	0.049977813323494	78717
78.817	50	138	0	0	contact_lens	397	138	0	stimuli\contact_lens\contact_lens_05s.jpg	4	-1	0	1	contact_lens_05s.jpg	0	0.0	0	63.1142360467929	63.16421678580811	0.0499807390151545	78817
78.917	50	139	0	0	corkscrew	411	139	0	stimuli\corkscrew\corkscrew_08n.jpg	7	-1	0	0	corkscrew_08n.jpg	0	0.0	0	63.2142560391803	63.2642197115347	0.0499636723543517	78917
79.017	50	140	0	0	goggles	686	140	0	stimuli\goggles\goggles_08s.jpg	7	-1	0	0	goggles_08s.jpg	0	0.0	0	63.3142399477656	63.36422190582379	0.0499819580581971	79017
79.117	50	141	0	0	chinchilla	332	141	0	stimuli\chinchilla\chinchilla_01b.jpg	0	-1	0	0	chinchilla_01b.jpg	0	0.0	0	63.4142392163048	63.4642184925033	0.0499792761984281	79117
79.217	50	142	0	0	sledgehammer	1461	142	0	stimuli\sledgehammer\sledgehammer_03s.jpg	2	-1	0	0	sledgehammer_03s.jpg	0	0.0	0	63.514244580117506	63.5642292201519	0.0499846400343813	79217
79.317	50	143	0	0	checkers	311	143	0	stimuli\checkers\checkers_01b.jpg	0	-1	0	0	checkers_01b.jpg	0	0.0	0	63.6142484811135	63.6642297077342	0.049981226620730006	79317
79.417	50	144	0	0	marijuana	974	144	0	stimuli\marijuana\marijuana_11s.jpg	10	-1	0	0	marijuana_11s.jpg	0	0.0	0	63.7142567706178	63.764235559152404	0.049978788534645	79417
79.517	50	145	0	0	belt	118	145	0	stimuli\belt\belt_04s.jpg	3	-1	0	0	belt_04s.jpg	0	0.0	0	63.8142538449029	63.8642355591874	0.0499817142845131	79517
79.617	50	146	0	0	mosquito	1020	146	0	stimuli\mosquito\mosquito_09s.jpg	8	-1	0	0	mosquito_09s.jpg	0	0.0	0	63.91425677062939	63.964239947730704	0.0499831771012396	79617
79.717	50	147	0	0	pump	1252	147	0	stimuli\pump\pump_10s.jpg	9	-1	0	0	pump_10s.jpg	0	0.0	0	64.01426384109071	64.0642431172892	0.0499792761984281	79717
79.817	50	148	0	0	tadpole	1614	148	0	stimuli\tadpole\tadpole_08s.jpg	7	-1	0	0	tadpole_08s.jpg	0	0.0	0	64.1142611592077	64.1642440925352	0.0499829333275557	79817
79.917	50	149	0	0	nail_file	1048	149	0	stimuli\nail_file\nail_file_05s.jpg	4	-1	0	0	nail_file_05s.jpg	0	0.0	0	64.2142704239814	64.2642477496411	0.0499773256597109	79917
80.017	50	150	0	0	face	569	150	0	stimuli\face\face_03s.jpg	2	-1	0	0	face_03s.jpg	0	0.0	0	64.3142687173095	64.3642484811135	0.0499797638040036	80017
80.117	50	151	0	0	headband	762	151	0	stimuli\headband\headband_09s.jpg	8	-1	0	0	headband_09s.jpg	0	0.0	0	64.4142706677667	64.46424848109021	0.049977813323494	80117
80.217	50	152	0	0	punch1	1254	152	0	stimuli\punch1\punch1_07s.jpg	6	-1	0	0	punch1_07s.jpg	0	0.0	0	64.5142845649389	64.56426164682489	0.049977081886027	80217
80.317	50	153	0	0	mint	1004	153	0	stimuli\mint\mint_01b.jpg	0	-1	0	0	mint_01b.jpg	0	0.0	0	64.6142821268295	64.6642582335044	0.0499761066748761	80317
80.417	50	154	0	0	remote_control	1302	154	0	stimuli\remote_control\remote_control_06s.jpg	5	-1	0	0	remote_control_06s.jpg	0	0.0	0	64.7142952925642	64.7642621344421	0.0499668418779038	80417
80.517	50	155	0	0	poinsettia	1209	155	0	stimuli\poinsettia\poinsettia_09s.jpg	8	-1	0	0	poinsettia_09s.jpg	0	0.0	0	64.81428090779809	64.86426189064511	0.0499809828470461	80517
80.617	50	156	0	0	barrette	77	156	0	stimuli\barrette\barrette_11s.jpg	10	-1	0	0	barrette_11s.jpg	0	0.0	0	64.9142823706497	64.9642635972705	0.049981226620730006	80617
80.717	50	157	0	0	butterfly	229	157	0	stimuli\butterfly\butterfly_09s.jpg	8	-1	0	0	butterfly_09s.jpg	0	0.0	0	65.0142955363845	65.0642765192315	0.0499809828470461	80717
80.817	50	158	0	0	melon	994	158	0	stimuli\melon\melon_05s.jpg	4	-1	0	0	melon_05s.jpg	0	0.0	0	65.1142979744473	65.1642784696887	0.0499804952414706	80817
80.917	50	159	0	0	casserole	282	159	0	stimuli\casserole\casserole_04s.jpg	3	-1	0	0	casserole_04s.jpg	0	0.0	0	65.2143167477916	65.2642721306183	0.0499553828267381	80917
81.017	50	160	0	0	teabag	1632	160	0	stimuli\teabag\teabag_06s.jpg	5	-1	0	0	teabag_06s.jpg	0	0.0	0	65.3142926106229	65.3642743249075	0.0499817142845131	81017
81.117	50	161	0	0	snowshoe	1485	161	0	stimuli\snowshoe\snowshoe_12s.jpg	11	-1	0	0	snowshoe_12s.jpg	0	0.0	0	65.4142911477829	65.4642965116072	0.0500053638243116	81117
81.217	50	162	0	0	prism	1241	162	0	stimuli\prism\prism_09s.jpg	8	-1	0	0	prism_09s.jpg	0	0.0	0	65.5142977306386	65.5642801763606	0.0499824457219802	81217
81.317	50	163	0	0	shell3	1419	163	0	stimuli\shell3\shell3_02s.jpg	1	-1	0	0	shell3_02s.jpg	0	0.0	0	65.6143006563652	65.6642811516067	0.0499804952414706	81317
81.417	50	164	0	0	mop	1019	164	0	stimuli\mop\mop_09s.jpg	8	-1	0	0	mop_09s.jpg	0	0.0	0	65.71430065634189	65.7642809077515	0.0499802514095791	81417
81.517	50	165	0	0	streetlight	1571	165	0	stimuli\streetlight\streetlight_06n.jpg	5	-1	0	0	streetlight_06n.jpg	0	0.0	0	65.814308214467	65.8642850525212	0.0499768380541354	81517
81.617	50	166	0	0	backscratcher	50	166	0	stimuli\backscratcher\backscratcher_03s.jpg	2	-1	0	0	backscratcher_03s.jpg	0	0.0	0	65.91430967731871	65.9642930982518	0.0499834209331311	81617
81.717	50	167	0	0	drink	521	167	0	stimuli\drink\drink_08s.jpg	7	-1	0	0	drink_08s.jpg	0	0.0	0	66.01431455352581	66.0642921230174	0.0499775694916025	81717
81.817	50	168	0	0	minivan	1003	168	0	stimuli\minivan\minivan_11s.jpg	10	-1	0	0	minivan_11s.jpg	0	0.0	0	66.1143113839789	66.164295048744	0.0499836647650227	81817
81.917	50	169	0	0	strap	1567	169	0	stimuli\strap\strap_08s.jpg	7	-1	0	0	strap_08s.jpg	0	0.0	0	66.21430992113889	66.2643260125769	0.0500160914380103	81917
82.017	50	170	0	0	switch	1600	170	0	stimuli\switch\switch_10s.jpg	9	-1	0	0	switch_10s.jpg	0	0.0	0	66.314347224019	66.3643179668579	0.0499707428389229	82017
82.117	50	171	0	0	mallet	962	171	0	stimuli\mallet\mallet_08s.jpg	7	-1	0	0	mallet_08s.jpg	0	0.0	0	66.414333814464	66.46432113635821	0.0499873218941502	82117
82.217	50	172	0	0	grill	714	172	0	stimuli\grill\grill_03s.jpg	2	-1	0	0	grill_03s.jpg	0	0.0	0	66.5143277192255	66.5643067515921	0.0499790323665366	82217
82.317	50	173	0	0	dice	486	173	0	stimuli\dice\dice_11s.jpg	10	-1	0	0	dice_11s.jpg	0	0.0	0	66.61433113255771	66.6643121154048	0.0499809828470461	82317
82.417	50	174	0	0	ankle	22	174	0	stimuli\ankle\ankle_06s.jpg	5	-1	0	0	ankle_06s.jpg	0	0.0	0	66.71433478972179	66.7643162601744	0.0499814704526216	82417
82.517	50	175	0	0	breathalyzer	198	175	0	stimuli\breathalyzer\breathalyzer_07s.jpg	6	-1	0	0	breathalyzer_07s.jpg	0	0.0	0	66.8143350335304	66.8643130906275	0.049978057097178	82517
82.617	50	176	0	0	headscarf	768	176	0	stimuli\headscarf\headscarf_06s.jpg	5	-1	0	0	headscarf_06s.jpg	0	0.0	0	66.9143328392529	66.9643191858777	0.0499863466247916	82617
82.717	50	177	0	0	place_mat	1193	177	0	stimuli\place_mat\place_mat_09s.jpg	8	-1	0	0	place_mat_09s.jpg	0	0.0	0	67.0143379592337	67.0643191859126	0.0499812266789377	82717
82.817	50	178	0	0	ferret	578	178	0	stimuli\ferret\ferret_09n.jpg	8	-1	0	0	ferret_09n.jpg	0	0.0	0	67.1143574640155	67.1643335706904	0.0499761066748761	82817
82.917	50	179	0	0	lego	913	179	0	stimuli\lego\lego_05s.jpg	4	-1	0	0	lego_05s.jpg	0	0.0	0	67.2143577078241	67.2643416163628	0.0499839085387066	82917
83.017	50	180	0	0	closet	360	180	0	stimuli\closet\closet_03s.jpg	2	-1	0	0	closet_03s.jpg	0	0.0	0	67.3143601459451	67.3643399096909	0.0499797637457959	83017
83.117	50	181	0	0	baton1	92	181	0	stimuli\baton1\baton1_08s.jpg	7	-1	0	0	baton1_08s.jpg	0	0.0	0	67.41436477832029	67.4643430792494	0.0499783009290695	83117
83.217	50	182	0	0	caramel	270	182	0	stimuli\caramel\caramel_06s.jpg	5	-1	0	0	caramel_06s.jpg	0	0.0	0	67.5143628278165	67.5643435668899	0.0499807390733622	83217
83.317	50	183	0	0	candy	255	183	0	stimuli\candy\candy_06s.jpg	5	-1	0	0	candy_06s.jpg	0	0.0	0	67.61436770402359	67.6643464925583	0.049978788534645	83317
83.417	50	184	0	0	phone	1161	184	0	stimuli\phone\phone_03s.jpg	2	-1	0	0	phone_03s.jpg	0	0.0	0	67.7143577078241	67.7643428354058	0.0499851275817491	83417
83.517	50	185	0	0	puppet	1257	185	0	stimuli\puppet\puppet_10s.jpg	9	-1	0	0	puppet_10s.jpg	0	0.0	0	67.8143596582813	67.8643384468742	0.0499787885928527	83517
83.617	50	186	0	0	bean	102	186	0	stimuli\bean\bean_01b.jpg	0	-1	0	0	bean_01b.jpg	0	0.0	0	67.91436307161351	67.9643481992534	0.0499851276399568	83617
83.717	50	187	0	0	toe	1668	187	0	stimuli\toe\toe_11s.jpg	10	-1	0	0	toe_11s.jpg	0	0.0	0	68.0143706297386	68.0643608773244	0.0499902475858107	83717
83.817	50	188	0	0	couch	422	188	0	stimuli\couch\couch_11s.jpg	10	-1	0	0	couch_11s.jpg	0	0.0	0	68.1143833078677	68.16436355927729	0.0499802514095791	83817
83.917	50	189	0	0	tube_top	1724	189	0	stimuli\tube_top\tube_top_12s.jpg	11	-1	0	0	tube_top_12s.jpg	0	0.0	0	68.2143894030596	68.2643684354261	0.0499790323665366	83917
84.017	50	190	0	0	computer_screen	395	190	0	stimuli\computer_screen\computer_screen_04s.jpg	3	-1	0	0	computer_screen_04s.jpg	0	0.0	0	68.3143850145279	68.3643674601917	0.0499824456637725	84017
84.117	50	191	0	0	flashlight	611	191	0	stimuli\flashlight\flashlight_03s.jpg	2	-1	0	0	flashlight_03s.jpg	0	0.0	0	68.4143894030713	68.4643947668956	0.0500053638243116	84117
84.217	50	192	0	0	shawl	1411	192	0	stimuli\shawl\shawl_02s.jpg	1	-1	0	0	shawl_02s.jpg	0	0.0	0	68.5144052507239	68.5643728240393	0.0499675733153708	84217
84.317	50	193	0	0	cocoon	376	193	0	stimuli\cocoon\cocoon_10s.jpg	9	-1	0	1	cocoon_10s.jpg	0	0.0	0	68.6143840392469	68.6643638030509	0.0499797638040036	84317
84.417	50	194	0	0	pecan	1135	194	0	stimuli\pecan\pecan_05s.jpg	4	-1	0	0	pecan_05s.jpg	0	0.0	0	68.7143920849776	68.7643650221289	0.049972937151324004	84417
84.517	50	195	0	0	turban	1730	195	0	stimuli\turban\turban_12s.jpg	11	-1	0	0	turban_12s.jpg	0	0.0	0	68.8143855021335	68.8643662411487	0.0499807390151545	84517
84.617	50	196	0	0	pencil_sharpener	1143	196	0	stimuli\pencil_sharpener\pencil_sharpener_10s.jpg	9	-1	0	0	pencil_sharpener_10s.jpg	0	0.0	0	68.9143915973837	68.9643740430474	0.0499824456637725	84617
84.717	50	197	0	0	shoe	1423	197	0	stimuli\shoe\shoe_01s.jpg	0	-1	0	0	shoe_01s.jpg	0	0.0	0	69.0143957421533	69.0643713611644	0.0499756190110929	84717
84.817	50	198	0	0	napkin_ring	1051	198	0	stimuli\napkin_ring\napkin_ring_01b.jpg	0	-1	0	0	napkin_ring_01b.jpg	0	0.0	0	69.1143923287746	69.1643796506687	0.0499873218941502	84817
84.917	50	199	0	0	oilcan	1073	199	0	stimuli\oilcan\oilcan_09s.jpg	8	-1	0	0	oilcan_09s.jpg	0	0.0	0	69.21440183738011	69.2644006183255	0.04999878094531599	84917
85.017	50	200	0	0	ski_boots	1453	200	0	stimuli\ski_boots\ski_boots_02s.jpg	1	-1	0	0	ski_boots_02s.jpg	0	0.0	0	69.314414759283	69.364398424048	0.0499836647650227	85017
85.117	50	201	0	0	mouth	1031	201	0	stimuli\mouth\mouth_04s.jpg	3	-1	0	0	mouth_04s.jpg	0	0.0	0	69.4144189040526	69.4643947668956	0.0499758628429845	85117
85.217	50	202	0	0	icepick	822	202	0	stimuli\icepick\icepick_02s.jpg	1	-1	0	0	icepick_02s.jpg	0	0.0	0	69.51442182977921	69.5643959859153	0.0499741561361589	85217
85.317	50	203	0	0	curry	464	203	0	stimuli\curry\curry_10s.jpg	9	-1	0	0	curry_10s.jpg	0	0.0	0	69.6144206107128	69.6643981802044	0.0499775694916025	85317
85.417	50	204	0	0	thumbtack	1654	204	0	stimuli\thumbtack\thumbtack_03s.jpg	2	-1	0	0	thumbtack_03s.jpg	0	0.0	0	69.714426705963	69.7644035440171	0.0499768380541354	85417
85.517	50	205	0	0	container	398	205	0	stimuli\container\container_04s.jpg	3	-1	0	0	container_04s.jpg	0	0.0	0	69.8144174412009	69.8643993992591	0.0499819580581971	85517
85.617	50	206	0	0	slipper	1468	206	0	stimuli\slipper\slipper_05s.jpg	4	-1	0	0	slipper_05s.jpg	0	0.0	0	69.9144179288414	69.9644015935482	0.049983664706815006	85617
85.717	50	207	0	0	puppy	1258	207	0	stimuli\puppy\puppy_07s.jpg	6	-1	0	0	puppy_07s.jpg	0	0.0	0	70.0144220735529	70.0644003745401	0.0499783009872772	85717
85.817	50	208	0	0	lollipop	945	208	0	stimuli\lollipop\lollipop_05s.jpg	4	-1	0	0	lollipop_05s.jpg	0	0.0	0	70.1144223173615	70.1644030564348	0.0499807390733622	85817
85.917	50	209	0	0	footbath	631	209	0	stimuli\footbath\footbath_11s.jpg	10	-1	0	0	footbath_11s.jpg	0	0.0	0	70.2144257307518	70.2644057383295	0.0499800075776875	85917
86.017	50	210	0	0	thermos	1647	210	0	stimuli\thermos\thermos_07s.jpg	6	-1	0	0	thermos_07s.jpg	0	0.0	0	70.3144274373772	70.36440963926731	0.0499822018900886	86017
86.117	50	211	0	0	magnet	956	211	0	stimuli\magnet\magnet_01b.jpg	0	-1	0	0	magnet_01b.jpg	0	0.0	0	70.41442841262321	70.4644140278688	0.0499856152455322	86117
86.217	50	212	0	0	gear	667	212	0	stimuli\gear\gear_11s.jpg	10	-1	0	0	gear_11s.jpg	0	0.0	0	70.5144340202678	70.5644164659316	0.0499824456637725	86217
86.317	50	213	0	0	cardigan	273	213	0	stimuli\cardigan\cardigan_11s.jpg	10	-1	0	0	cardigan_11s.jpg	0	0.0	0	70.61443792120551	70.6644164659665	0.0499785447609611	86317
86.417	50	214	0	0	hawk	760	214	0	stimuli\hawk\hawk_10s.jpg	9	-1	0	0	hawk_10s.jpg	0	0.0	0	70.7144374335767	70.7644176849863	0.0499802514095791	86417
86.517	50	215	0	0	candelabra	252	215	0	stimuli\candelabra\candelabra_07s.jpg	6	-1	0	1	candelabra_07s.jpg	0	0.0	0	70.8144418221782	70.86441841645859	0.0499765942804515	86517
86.617	50	216	0	0	octopus	1070	216	0	stimuli\octopus\octopus_11n.jpg	10	-1	0	0	octopus_11n.jpg	0	0.0	0	70.9144449916785	70.96442451165059	0.049979519972112	86617
86.717	50	217	0	0	swordfish	1603	217	0	stimuli\swordfish\swordfish_11s.jpg	10	-1	0	0	swordfish_11s.jpg	0	0.0	0	71.01445035549109	71.0644279249827	0.0499775694916025	86717
86.817	50	218	0	0	gravestone	710	218	0	stimuli\gravestone\gravestone_06s.jpg	5	-1	0	0	gravestone_06s.jpg	0	0.0	0	71.1144498678623	71.16442719358021	0.0499773257179186	86817
86.917	50	219	0	0	spur	1525	219	0	stimuli\spur\spur_08s.jpg	7	-1	0	0	spur_08s.jpg	0	0.0	0	71.2144540126319	71.2644342640415	0.0499802514095791	86917
87.017	50	220	0	0	compass	392	220	0	stimuli\compass\compass_08s.jpg	7	-1	0	0	compass_08s.jpg	0	0.0	0	71.31445254979191	71.364433288807	0.0499807390151545	87017
87.117	50	221	0	0	first-aid_kit	599	221	0	stimuli\first-aid_kit\first-aid_kit_05s.jpg	4	-1	0	0	first-aid_kit_05s.jpg	0	0.0	0	71.41445523168659	71.4644406031002	0.0499853714136407	87117
87.217	50	222	0	0	sheath	1413	222	0	stimuli\sheath\sheath_04s.jpg	3	-1	0	0	sheath_04s.jpg	0	0.0	0	71.5144605954993	71.5644515745225	0.0499909790232778	87217
87.317	50	223	0	0	helmet	776	223	0	stimuli\helmet\helmet_07s.jpg	6	-1	0	0	helmet_07s.jpg	0	0.0	0	71.6144493802567	71.66447034786691	0.0500209676101804	87317
87.417	50	224	0	0	pipe2	1187	224	0	stimuli\pipe2\pipe2_06s.jpg	5	-1	0	0	pipe2_06s.jpg	0	0.0	0	71.71446839743291	71.7644535250147	0.0499851275817491	87417
87.517	50	225	0	0	velcro	1756	225	0	stimuli\velcro\velcro_11s.jpg	10	-1	0	0	velcro_11s.jpg	0	0.0	0	71.8144708354957	71.8644518183428	0.0499809828470461	87517
87.617	50	226	0	0	christmas_card	340	226	0	stimuli\christmas_card\christmas_card_03s.jpg	2	-1	0	0	christmas_card_03s.jpg	0	0.0	0	71.9144674221752	71.9644527935889	0.0499853714136407	87617
87.717	50	227	0	0	bassoon	86	227	0	stimuli\bassoon\bassoon_03s.jpg	2	-1	0	0	bassoon_03s.jpg	0	0.0	0	72.01447473646842	72.0644530373975	0.0499783009290695	87717
87.817	50	228	0	0	saxophone	1368	228	0	stimuli\saxophone\saxophone_08s.jpg	7	-1	0	0	saxophone_08s.jpg	0	0.0	0	72.1144754678826	72.16445645072959	0.0499809828470461	87817
87.917	50	229	0	0	calzone	243	229	0	stimuli\calzone\calzone_04s.jpg	3	-1	0	0	calzone_04s.jpg	0	0.0	0	72.2144801002578	72.2644642526284	0.0499841523705982	87917
88.017	50	230	0	0	soy_sauce	1500	230	0	stimuli\soy_sauce\soy_sauce_07s.jpg	6	-1	0	0	soy_sauce_07s.jpg	0	0.0	0	72.31448058789829	72.36446644691749	0.0499858590192162	88017
88.117	50	231	0	0	keyboard	870	231	0	stimuli\keyboard\keyboard_02s.jpg	1	-1	0	0	keyboard_02s.jpg	0	0.0	0	72.4144820507499	72.4644998488366	0.0500177980866283	88117
88.217	50	232	0	0	washcloth	1783	232	0	stimuli\washcloth\washcloth_03s.jpg	2	-1	0	0	washcloth_03s.jpg	0	0.0	0	72.514489608875	72.564465471718	0.0499758628429845	88217
88.317	50	233	0	0	yogurt	1848	233	0	stimuli\yogurt\yogurt_02s.jpg	1	-1	0	0	yogurt_02s.jpg	0	0.0	0	72.6145005802973	72.66448229458179	0.0499817142845131	88317
88.417	50	234	0	0	dolphin	502	234	0	stimuli\dolphin\dolphin_08s.jpg	7	-1	0	0	dolphin_08s.jpg	0	0.0	0	72.7144876584061	72.7645091136219	0.0500214552157559	88417
88.517	50	235	0	0	hinge	779	235	0	stimuli\hinge\hinge_01b.jpg	0	-1	0	0	hinge_01b.jpg	0	0.0	0	72.81452861841541	72.86450643173879	0.049977813323494	88517
88.617	50	236	0	0	football	629	236	0	stimuli\football\football_09s.jpg	8	-1	0	0	football_09s.jpg	0	0.0	0	72.9145188659895	72.9644949726644	0.0499761066748761	88617
88.717	50	237	0	0	wineglass	1826	237	0	stimuli\wineglass\wineglass_10s.jpg	9	-1	0	0	wineglass_10s.jpg	0	0.0	0	73.0145161841065	73.0644957040786	0.049979519972112	88717
88.817	50	238	0	0	keyhole	871	238	0	stimuli\keyhole\keyhole_09s.jpg	8	-1	0	0	keyhole_09s.jpg	0	0.0	0	73.11451691552071	73.16449862980521	0.0499817142845131	88817
88.917	50	239	0	0	skin	1456	239	0	stimuli\skin\skin_03s.jpg	2	-1	0	0	skin_03s.jpg	0	0.0	0	73.2145208165166	73.26450374984421	0.0499829333275557	88917
89.017	50	240	0	0	foot	628	240	0	stimuli\foot\foot_03s.jpg	2	-1	0	0	foot_03s.jpg	0	0.0	0	73.3145230108057	73.3645044812583	0.0499814704526216	89017
89.117	50	241	0	0	pantsuit	1109	241	0	stimuli\pantsuit\pantsuit_01b.jpg	0	-1	0	0	pantsuit_01b.jpg	0	0.0	0	73.4145266679116	73.4645054565044	0.0499787885928527	89117
89.217	50	242	0	0	plug	1202	242	0	stimuli\plug\plug_07s.jpg	6	-1	0	0	plug_07s.jpg	0	0.0	0	73.5145278869895	73.56450521264921	0.0499773256597109	89217
89.317	50	243	0	0	doghouse	497	243	0	stimuli\doghouse\doghouse_01b.jpg	0	-1	0	0	doghouse_01b.jpg	0	0.0	0	73.6145261803176	73.6645113078994	0.0499851275817491	89317
89.417	50	244	0	0	sweet_potato	1595	244	0	stimuli\sweet_potato\sweet_potato_04s.jpg	3	-1	0	0	sweet_potato_04s.jpg	0	0.0	0	73.7145364203025	73.7645120393718	0.0499756190693006	89417
89.517	50	245	0	0	eggshell	551	245	0	stimuli\eggshell\eggshell_03s.jpg	2	-1	0	0	eggshell_03s.jpg	0	0.0	0	73.814530325064	73.86451496504009	0.0499846399761736	89517
89.617	50	246	0	0	water_fountain	1790	246	0	stimuli\water_fountain\water_fountain_03s.jpg	2	-1	0	0	water_fountain_03s.jpg	0	0.0	0	73.9145342260017	73.9645191098098	0.0499848838080652	89617
89.717	50	247	0	0	trailer	1697	247	0	stimuli\trailer\trailer_01b.jpg	0	-1	0	0	trailer_01b.jpg	0	0.0	0	74.01453861460321	74.0645169155323	0.0499783009290695	89717
89.817	50	248	0	0	worm	1836	248	0	stimuli\worm\worm_04n.jpg	3	-1	0	0	worm_04n.jpg	0	0.0	0	74.11454202793541	74.1645217917394	0.0499797638040036	89817
89.917	50	249	0	0	manhole	967	249	0	stimuli\manhole\manhole_05n.jpg	4	-1	0	0	manhole_05n.jpg	0	0.0	0	74.21454227174401	74.264524717466	0.0499824457219802	89917
90.017	50	250	0	0	thermometer	1646	250	0	stimuli\thermometer\thermometer_10s.jpg	9	-1	0	0	thermometer_10s.jpg	0	0.0	0	74.3145668965299	74.36453178792729	0.0499648913973942	90017
90.117	50	251	0	0	exerciser	561	251	0	stimuli\exerciser\exerciser_07s.jpg	6	-1	0	0	exerciser_07s.jpg	0	0.0	0	74.4145700660301	74.46453471365379	0.0499646476237103	90117
90.217	50	252	0	0	dumbbell	530	252	0	stimuli\dumbbell\dumbbell_12s.jpg	11	-1	0	0	dumbbell_12s.jpg	0	0.0	0	74.5145554374903	74.5645293498528	0.0499739123624749	90217
90.317	50	253	0	0	painting	1098	253	0	stimuli\painting\painting_12s.jpg	11	-1	0	0	painting_12s.jpg	0	0.0	0	74.6145522679435	74.6645369079197	0.0499846399761736	90317
90.417	50	254	0	0	tupperware	1729	254	0	stimuli\tupperware\tupperware_06s.jpg	5	-1	0	0	tupperware_06s.jpg	0	0.0	0	74.71455592510759	74.76455982605691	0.0500039009493776	90417
90.517	50	255	0	0	lamb_chop	890	255	0	stimuli\lamb_chop\lamb_chop_08s.jpg	7	-1	0	0	lamb_chop_08s.jpg	0	0.0	0	74.81458664510859	74.8645400774549	0.0499534323462285	90517
90.617	50	256	0	0	shredder	1437	256	0	stimuli\shredder\shredder_01b.jpg	0	-1	0	0	shredder_01b.jpg	0	0.0	0	74.9145647022524	74.9645481231855	0.0499834209331311	90617
90.717	50	257	0	0	handbrake	745	257	0	stimuli\handbrake\handbrake_11s.jpg	10	-1	0	0	handbrake_11s.jpg	0	0.0	0	75.0145739670261	75.0645461726817	0.0499722056556493	90717
90.817	50	258	0	0	crane	431	258	0	stimuli\crane\crane_01b.jpg	0	-1	0	0	crane_01b.jpg	0	0.0	0	75.1145703098737	75.16455933841641	0.0499890285427682	90817
90.917	50	259	0	0	icemaker	821	259	0	stimuli\icemaker\icemaker_10s.jpg	9	-1	0	0	icemaker_10s.jpg	0	0.0	0	75.2145729917684	75.26457762415521	0.0500046323868446	90917
91.017	50	260	0	0	banjo	68	260	0	stimuli\banjo\banjo_03s.jpg	2	-1	0	0	banjo_03s.jpg	0	0.0	0	75.3145751860575	75.3645510489005	0.0499758628429845	91017
91.117	50	261	0	0	lectern	908	261	0	stimuli\lectern\lectern_02s.jpg	1	-1	0	0	lectern_02s.jpg	0	0.0	0	75.414576892741	75.46456738415871	0.0499904914177023	91117
91.217	50	262	0	0	holster	786	262	0	stimuli\holster\holster_02s.jpg	1	-1	0	0	holster_02s.jpg	0	0.0	0	75.5145790870301	75.5645610450883	0.0499819580581971	91217
91.317	50	263	0	0	siren	1448	263	0	stimuli\siren\siren_05s.jpg	4	-1	0	0	siren_05s.jpg	0	0.0	0	75.61458664509699	75.66456543368992	0.0499787885928527	91317
91.417	50	264	0	0	windshield	1820	264	0	stimuli\windshield\windshield_12s.jpg	11	-1	0	0	windshield_12s.jpg	0	0.0	0	75.714589083218	75.7645678717527	0.049978788534645	91417
91.517	50	265	0	0	dishwasher	491	265	0	stimuli\dishwasher\dishwasher_04s.jpg	3	-1	0	0	dishwasher_04s.jpg	0	0.0	0	75.8145864012768	75.8645649460377	0.0499785447609611	91517
91.617	50	266	0	0	creme_brulee	439	266	0	stimuli\creme_brulee\creme_brulee_09s.jpg	8	-1	0	0	creme_brulee_09s.jpg	0	0.0	0	75.9145876203547	75.9645751860808	0.0499875657260418	91617
91.717	50	267	0	0	garter	659	267	0	stimuli\garter\garter_08s.jpg	7	-1	0	0	garter_08s.jpg	0	0.0	0	76.01459786033959	76.06457445462	0.0499765942804515	91717
91.817	50	268	0	0	grate	707	268	0	stimuli\grate\grate_05s.jpg	4	-1	0	0	grate_05s.jpg	0	0.0	0	76.114592008933	76.1645790869952	0.0499870780622587	91817
91.917	50	269	0	0	flamingo	608	269	0	stimuli\flamingo\flamingo_04s.jpg	3	-1	0	0	flamingo_04s.jpg	0	0.0	0	76.21459712891371	76.2645827441593	0.0499856152455322	91917
92.017	50	270	0	0	shortbread	1429	270	0	stimuli\shortbread\shortbread_11s.jpg	10	-1	0	0	shortbread_11s.jpg	0	0.0	0	76.3146005422459	76.3645832317998	0.0499826895538718	92017
92.117	50	271	0	0	harness	754	271	0	stimuli\harness\harness_06s.jpg	5	-1	0	0	harness_06s.jpg	0	0.0	0	76.4145842069993	76.4645885956124	0.0500043886131607	92117
92.218	50	272	0	0	yacht	1844	272	0	stimuli\yacht\yacht_08s.jpg	7	-1	0	0	yacht_08s.jpg	0	0.0	0	76.51461126987121	76.56459152128079	0.0499802514095791	92218
92.318	50	273	0	0	sugar_cube	1579	273	0	stimuli\sugar_cube\sugar_cube_07s.jpg	6	-1	0	0	sugar_cube_07s.jpg	0	0.0	0	76.6146112699062	76.6646020050975	0.0499907351913862	92318
92.417	50	274	0	0	croissant	442	274	0	stimuli\croissant\croissant_03s.jpg	2	-1	0	0	croissant_03s.jpg	0	0.0	0	76.7145920089097	76.7646132203517	0.0500212114420719	92417
92.518	50	275	0	0	blackberry	135	275	0	stimuli\blackberry\blackberry_09n.jpg	8	-1	0	0	blackberry_09n.jpg	0	0.0	0	76.81463540706321	76.8646171212895	0.0499817142263055	92518
92.618	50	276	0	0	doorknocker	510	276	0	stimuli\doorknocker\doorknocker_01b.jpg	0	-1	0	0	doorknocker_01b.jpg	0	0.0	0	76.91461834037909	76.9646183403675	0.0499999999883585	92618
92.718	50	277	0	0	raincoat	1279	277	0	stimuli\raincoat\raincoat_09s.jpg	8	-1	0	0	raincoat_09s.jpg	0	0.0	0	77.0146434527705	77.0646205346566	0.049977081886027	92718
92.818	50	278	0	0	shield	1420	278	0	stimuli\shield\shield_05s.jpg	4	-1	0	0	shield_05s.jpg	0	0.0	0	77.1146463784971	77.1646244355943	0.049978057097178	92818
92.918	50	279	0	0	mat	982	279	0	stimuli\mat\mat_02s.jpg	1	-1	0	0	mat_02s.jpg	0	0.0	0	77.2146334565477	77.264627117489	0.0499936609412543	92918
93.018	50	280	0	0	moth	1023	280	0	stimuli\moth\moth_09n.jpg	8	-1	0	0	moth_09n.jpg	0	0.0	0	77.3146514984546	77.3646324813017	0.0499809828470461	93018
93.118	50	281	0	0	lifesaver	925	281	0	stimuli\lifesaver\lifesaver_01b.jpg	0	-1	0	0	lifesaver_01b.jpg	0	0.0	0	77.4146395518328	77.4646129765315	0.0499734246986918	93118
93.218	50	282	0	0	roulette_wheel	1335	282	0	stimuli\roulette_wheel\roulette_wheel_02s.jpg	1	-1	0	0	roulette_wheel_02s.jpg	0	0.0	0	77.5146329689305	77.5646180965705	0.0499851276399568	93218
93.318	50	283	0	0	eyepiece	568	283	0	stimuli\eyepiece\eyepiece_03s.jpg	2	-1	0	0	eyepiece_03s.jpg	0	0.0	0	77.6146395517862	77.66461882798471	0.0499792761984281	93318
93.418	50	284	0	0	salad	1348	284	0	stimuli\salad\salad_11s.jpg	10	-1	0	0	salad_11s.jpg	0	0.0	0	77.71463906415741	77.76462053466821	0.0499814705108292	93418
93.518	50	285	0	0	cobra	371	285	0	stimuli\cobra\cobra_10s.jpg	9	-1	0	0	cobra_10s.jpg	0	0.0	0	77.81463906419229	77.86461907177	0.0499800075776875	93518
93.618	50	286	0	0	juicer1	855	286	0	stimuli\juicer1\juicer1_10s.jpg	9	-1	0	0	juicer1_10s.jpg	0	0.0	0	77.9146449156106	77.9646237042034	0.0499787885928527	93618
93.718	50	287	0	0	bank	69	287	0	stimuli\bank\bank_08s.jpg	7	-1	0	0	bank_08s.jpg	0	0.0	0	78.0146502794232	78.06462419178571	0.0499739123624749	93718
93.818	50	288	0	0	blimp	139	288	0	stimuli\blimp\blimp_05s.jpg	4	-1	0	0	blimp_05s.jpg	0	0.0	0	78.1146451594541	78.16462979943029	0.0499846399761736	93818
93.918	50	289	0	0	meat_grinder	988	289	0	stimuli\meat_grinder\meat_grinder_05s.jpg	4	-1	0	0	meat_grinder_05s.jpg	0	0.0	0	78.2146529613528	78.2646305308444	0.0499775694916025	93918
94.018	50	290	0	0	cheetah	315	290	0	stimuli\cheetah\cheetah_07s.jpg	6	-1	0	0	cheetah_07s.jpg	0	0.0	0	78.314651010849	78.3646332127391	0.0499822018900886	94018
94.118	50	291	0	0	sunflower	1584	291	0	stimuli\sunflower\sunflower_02s.jpg	1	-1	0	0	sunflower_02s.jpg	0	0.0	0	78.4146605194546	78.46463906415741	0.0499785447027534	94118
94.218	50	292	0	0	map	970	292	0	stimuli\map\map_06s.jpg	5	-1	0	0	map_06s.jpg	0	0.0	0	78.5146575937397	78.5646417461103	0.0499841523705982	94218
94.318	50	293	0	0	album	11	293	0	stimuli\album\album_06s.jpg	5	-1	0	0	album_06s.jpg	0	0.0	0	78.614661982283	78.6646600317908	0.0499980495078489	94318
94.418	50	294	0	0	aardvark	0	294	0	stimuli\aardvark\aardvark_12s.jpg	11	-1	0	0	aardvark_12s.jpg	0	0.0	0	78.71467002801359	78.7646493042121	0.0499792761984281	94418
94.518	50	295	0	0	eyeliner	567	295	0	stimuli\eyeliner\eyeliner_04s.jpg	3	-1	0	0	eyeliner_04s.jpg	0	0.0	0	78.81468758231492	78.8646546680247	0.0499670857097954	94518
94.618	50	296	0	0	highchair	777	296	0	stimuli\highchair\highchair_08s.jpg	7	-1	0	0	highchair_08s.jpg	0	0.0	0	78.9146751480293	78.9646556432708	0.0499804952414706	94618
94.718	50	297	0	0	envelope	558	297	0	stimuli\envelope\envelope_02s.jpg	1	-1	0	0	envelope_02s.jpg	0	0.0	0	79.01467027183391	79.06465222989209	0.0499819580581971	94718
94.818	50	298	0	0	wreck	1840	298	0	stimuli\wreck\wreck_03s.jpg	2	-1	0	0	wreck_03s.jpg	0	0.0	0	79.11469855374891	79.1646661270643	0.0499675733153708	94818
94.918	50	299	0	0	figurine	582	299	0	stimuli\figurine\figurine_01b.jpg	0	-1	0	0	figurine_01b.jpg	0	0.0	0	79.21468880138129	79.2646612508688	0.0499724494875409	94918
95.018	50	300	0	0	flipper	615	300	0	stimuli\flipper\flipper_12s.jpg	11	-1	0	0	flipper_12s.jpg	0	0.0	0	79.3146827061428	79.3646656394121	0.049982933269347996	95018
95.118	50	301	0	0	domino	503	301	0	stimuli\domino\domino_03s.jpg	2	-1	0	0	domino_03s.jpg	0	0.0	0	79.4146870946861	79.46466856513871	0.0499814704526216	95118
95.218	50	302	0	0	pipe1	1186	302	0	stimuli\pipe1\pipe1_05s.jpg	4	-1	0	0	pipe1_05s.jpg	0	0.0	0	79.5146880699322	79.56466612708749	0.0499780571553856	95218
95.318	50	303	0	0	vending_machine	1757	303	0	stimuli\vending_machine\vending_machine_05s.jpg	4	-1	0	0	vending_machine_05s.jpg	0	0.0	0	79.61469367757671	79.6646739289863	0.0499802514095791	95318
95.418	50	304	0	0	incense	826	304	0	stimuli\incense\incense_06s.jpg	5	-1	0	0	incense_06s.jpg	0	0.0	0	79.7146961156395	79.7646780737559	0.0499819581164047	95418
95.518	50	305	0	0	defibrillator	477	305	0	stimuli\defibrillator\defibrillator_05s.jpg	4	-1	0	0	defibrillator_05s.jpg	0	0.0	0	79.81469416519391	79.8646773422952	0.0499831771012396	95518
95.618	50	306	0	0	dish	489	306	0	stimuli\dish\dish_11s.jpg	10	-1	0	0	dish_11s.jpg	0	0.0	0	79.91469635948309	79.96468319371341	0.0499868342303671	95618
95.718	50	307	0	0	pretzel	1239	307	0	stimuli\pretzel\pretzel_12s.jpg	11	-1	0	0	pretzel_12s.jpg	0	0.0	0	80.01470196706941	80.0646836813539	0.0499817142845131	95718
95.818	50	308	0	0	celery	291	308	0	stimuli\celery\celery_01b.jpg	0	-1	0	0	celery_01b.jpg	0	0.0	0	80.114703673753	80.16468685085421	0.0499831771012396	95818
105.818	50	309	0	0	record	1295	0	1	stimuli\record\record_08s.jpg	7	-1	1	0	record_08s.jpg	0	0.0	0	90.1149665005505	90.1649421196198	0.0499756190693006	105818
105.918	50	310	0	0	panties	1107	1	1	stimuli\panties\panties_11s.jpg	10	-1	1	0	panties_11s.jpg	0	0.0	0	90.2149625996244	90.2649452891201	0.0499826894956641	105918
106.018	50	311	0	0	game	654	2	1	stimuli\game\game_07s.jpg	6	-1	1	0	game_07s.jpg	0	0.0	0	90.314964306308	90.36497674055859	0.0500124342506751	106018
106.118	50	312	0	0	breadstick	196	3	1	stimuli\breadstick\breadstick_04s.jpg	3	-1	1	0	breadstick_04s.jpg	0	0.0	0	90.41499527014092	90.4649633310619	0.0499680609209463	106118
106.218	50	313	0	0	scallion	1372	4	1	stimuli\scallion\scallion_08s.jpg	7	-1	1	0	scallion_08s.jpg	0	0.0	0	90.5149755215389	90.56495821103451	0.0499826894956641	106218
106.318	50	314	0	0	pillbox	1175	5	1	stimuli\pillbox\pillbox_01b.jpg	0	-1	1	0	pillbox_01b.jpg	0	0.0	0	90.61497698439051	90.6649606491555	0.0499836647650227	106318
106.418	50	315	0	0	skateboard	1449	6	1	stimuli\skateboard\skateboard_02s.jpg	1	-1	1	0	skateboard_02s.jpg	0	0.0	0	90.71498064155459	90.7649584548781	0.049977813323494	106418
106.518	50	316	0	0	coil	384	7	1	stimuli\coil\coil_12s.jpg	11	-1	1	0	coil_12s.jpg	0	0.0	0	90.81498112913691	90.86495747964359	0.0499763505067676	106518
106.618	50	317	0	0	asparagus	42	8	1	stimuli\asparagus\asparagus_07s.jpg	6	-1	1	0	asparagus_07s.jpg	0	0.0	0	90.91501501871971	90.96499283204321	0.049977813323494	106618
106.718	50	318	0	0	headlamp	764	9	1	stimuli\headlamp\headlamp_02s.jpg	1	-1	1	0	headlamp_02s.jpg	0	0.0	0	91.0149872244219	91.0649801539257	0.0499929295037873	106718
106.818	50	319	0	0	pantyhose	1110	10	1	stimuli\pantyhose\pantyhose_06s.jpg	5	-1	1	0	pantyhose_06s.jpg	0	0.0	0	91.1150055101025	91.1649733272498	0.0499678171472624	106818
106.918	50	320	0	0	mitten	1008	11	1	stimuli\mitten\mitten_06s.jpg	5	-1	1	0	mitten_06s.jpg	0	0.0	0	91.2149874682073	91.26497040153481	0.0499829333275557	106918
107.018	50	321	0	0	fondue	626	12	1	stimuli\fondue\fondue_02s.jpg	1	-1	1	0	fondue_02s.jpg	0	0.0	0	91.31499234441429	91.3649728396558	0.0499804952414706	107018
107.118	50	322	0	0	scissors	1379	13	1	stimuli\scissors\scissors_02s.jpg	1	-1	1	0	scissors_02s.jpg	0	0.0	0	91.4150020967936	91.4649942948599	0.0499921980663203	107118
107.218	50	323	0	0	mailbox	960	14	1	stimuli\mailbox\mailbox_10s.jpg	9	-1	1	0	mailbox_10s.jpg	0	0.0	0	91.51501258061029	91.5649921005825	0.049979519972112	107218
107.318	50	324	0	0	nose	1063	15	1	stimuli\nose\nose_07s.jpg	6	-1	1	0	nose_07s.jpg	0	0.0	0	91.61501038633291	91.66499478247721	0.0499843961442821	107318
107.418	50	325	0	0	dumbwaiter	531	16	1	stimuli\dumbwaiter\dumbwaiter_06s.jpg	5	-1	1	0	dumbwaiter_06s.jpg	0	0.0	0	91.7150152624818	91.76499331963709	0.0499780571553856	107418
107.518	50	326	0	0	footprint	632	17	1	stimuli\footprint\footprint_09s.jpg	8	-1	1	0	footprint_09s.jpg	0	0.0	0	91.81501891964581	91.86499917105542	0.0499802514095791	107518
107.618	50	327	0	0	hook1	793	18	1	stimuli\hook1\hook1_11s.jpg	10	-1	1	0	hook1_11s.jpg	0	0.0	0	91.915039399697	91.96500087773892	0.0499614780419506	107618
107.718	50	328	0	0	hyena	815	19	1	stimuli\hyena\hyena_05s.jpg	4	-1	1	0	hyena_05s.jpg	0	0.0	0	92.0150162377395	92.06499551393792	0.0499792761984281	107718
107.818	50	329	0	0	scrambled_egg	1386	20	1	stimuli\scrambled_egg\scrambled_egg_08s.jpg	7	-1	1	0	scrambled_egg_08s.jpg	0	0.0	0	92.115021845384	92.16499356343408	0.0499717180500738	107818
107.918	50	330	0	0	cream_cheese	437	21	1	stimuli\cream_cheese\cream_cheese_08s.jpg	7	-1	1	0	cream_cheese_08s.jpg	0	0.0	0	92.2150191634428	92.26499673299259	0.0499775695498101	107918
108.018	50	331	0	0	tiger	1659	22	1	stimuli\tiger\tiger_07s.jpg	6	-1	1	0	tiger_07s.jpg	0	0.0	0	92.31501891964581	92.3650023405789	0.0499834209331311	108018
108.118	50	332	0	0	crystal1	453	23	1	stimuli\crystal1\crystal1_09s.jpg	8	-1	1	0	crystal1_09s.jpg	0	0.0	0	92.4150228205835	92.4650079482235	0.0499851276399568	108118
108.218	50	333	0	0	javelin	841	24	1	stimuli\javelin\javelin_05s.jpg	4	-1	1	0	javelin_05s.jpg	0	0.0	0	92.5150257463101	92.56500648538349	0.0499807390733622	108218
108.318	50	334	0	0	bazooka	98	25	1	stimuli\bazooka\bazooka_10s.jpg	9	-1	1	0	bazooka_10s.jpg	0	0.0	0	92.61505890445551	92.66501501871971	0.0499561142642051	108318
108.418	50	335	0	0	pie	1168	26	1	stimuli\pie\pie_08s.jpg	7	-1	1	0	pie_08s.jpg	0	0.0	0	92.7150291596772	92.7650150186964	0.0499858590192162	108418
108.518	50	336	0	0	dogfood	496	27	1	stimuli\dogfood\dogfood_01b.jpg	0	-1	1	0	dogfood_01b.jpg	0	0.0	0	92.815035498701	92.86502915964229	0.0499936609412543	108518
108.618	50	337	0	0	silverware	1445	28	1	stimuli\silverware\silverware_02s.jpg	1	-1	1	0	silverware_02s.jpg	0	0.0	0	92.9150503710844	92.9650252587162	0.0499748876318336	108618
108.718	50	338	0	0	dishrag	490	29	1	stimuli\dishrag\dishrag_11s.jpg	10	-1	1	0	dishrag_11s.jpg	0	0.0	0	93.01504817680691	93.0650301349233	0.0499819581164047	108718
108.818	50	339	0	0	spoon	1519	30	1	stimuli\spoon\spoon_09s.jpg	8	-1	1	0	spoon_09s.jpg	0	0.0	0	93.1150506149279	93.1650323292124	0.0499817142845131	108818
108.918	50	340	0	0	jeans	842	31	1	stimuli\jeans\jeans_08s.jpg	7	-1	1	0	jeans_08s.jpg	0	0.0	0	93.215070851089	93.2650367177557	0.0499658666667528	108918
109.018	50	341	0	0	yo-yo	1847	32	1	stimuli\yo-yo\yo-yo_05s.jpg	4	-1	1	0	yo-yo_05s.jpg	0	0.0	0	93.3150735330419	93.3650571977487	0.049983664706815006	109018
109.118	50	342	0	0	gate	662	33	1	stimuli\gate\gate_03s.jpg	2	-1	1	0	gate_03s.jpg	0	0.0	0	93.41508133494058	93.4650420816033	0.0499607466626912	109118
109.218	50	343	0	0	stingray	1556	34	1	stimuli\stingray\stingray_08s.jpg	7	-1	1	0	stingray_08s.jpg	0	0.0	0	93.51506621873699	93.5650428130175	0.0499765942804515	109218
109.318	50	344	0	0	bungee	221	35	1	stimuli\bungee\bungee_02s.jpg	1	-1	1	0	bungee_02s.jpg	0	0.0	0	93.61506695015119	93.6650476892246	0.0499807390733622	109318
109.418	50	345	0	0	patch	1125	36	1	stimuli\patch\patch_09s.jpg	8	-1	1	0	patch_09s.jpg	0	0.0	0	93.71506646252242	93.76505695394009	0.0499904914177023	109418
109.518	50	346	0	0	binder	126	37	1	stimuli\binder\binder_12s.jpg	11	-1	1	0	binder_12s.jpg	0	0.0	0	93.81507255777251	93.865055734932	0.0499831771594472	109518
109.618	50	347	0	0	generator	671	38	1	stimuli\generator\generator_12s.jpg	11	-1	1	0	generator_12s.jpg	0	0.0	0	93.91507280158109	93.96505524730308	0.0499824457219802	109618
109.718	50	348	0	0	doorhandle	508	39	1	stimuli\doorhandle\doorhandle_01b.jpg	0	-1	1	0	doorhandle_01b.jpg	0	0.0	0	94.0150818225229	94.0650576853659	0.0499758628429845	109718
109.818	50	349	0	0	solar_panel	1493	40	1	stimuli\solar_panel\solar_panel_12s.jpg	11	-1	1	0	solar_panel_12s.jpg	0	0.0	0	94.1150801159092	94.16505695396341	0.0499768380541354	109818
109.918	50	350	0	0	missile	1006	41	1	stimuli\missile\missile_04s.jpg	3	-1	1	0	missile_04s.jpg	0	0.0	0	94.2150698758778	94.2650489082444	0.0499790323665366	109918
110.018	50	351	0	0	kitten	875	42	1	stimuli\kitten\kitten_11s.jpg	10	-1	1	0	kitten_11s.jpg	0	0.0	0	94.31510376540251	94.36508109112042	0.0499773257179186	110018
110.118	50	352	0	0	tank1	1620	43	1	stimuli\tank1\tank1_10s.jpg	9	-1	1	0	tank1_10s.jpg	0	0.0	0	94.4151047406485	94.4650679253973	0.0499631847487763	110118
110.218	50	353	0	0	battery	97	44	1	stimuli\battery\battery_04n.jpg	3	-1	1	0	battery_04n.jpg	0	0.0	0	94.51510571589459	94.5650884053903	0.0499826894956641	110218
110.318	50	354	0	0	squeegee	1527	45	1	stimuli\squeegee\squeegee_08s.jpg	7	-1	1	0	squeegee_08s.jpg	0	0.0	0	94.6151110797073	94.66508938063629	0.0499783009290695	110318
110.418	50	355	0	0	freezer	640	46	1	stimuli\freezer\freezer_04s.jpg	3	-1	1	0	freezer_04s.jpg	0	0.0	0	94.7151127863908	94.76509864541	0.0499858590192162	110418
110.518	50	356	0	0	bathtub	91	47	1	stimuli\bathtub\bathtub_06s.jpg	5	-1	1	0	bathtub_06s.jpg	0	0.0	0	94.8151176625979	94.8651003520936	0.0499826894956641	110518
110.618	50	357	0	0	jackhammer	837	48	1	stimuli\jackhammer\jackhammer_10s.jpg	9	-1	1	0	jackhammer_10s.jpg	0	0.0	0	94.9151010835194	94.96507255779579	0.0499714742763899	110618
110.718	50	358	0	0	cupcake	461	49	1	stimuli\cupcake\cupcake_07s.jpg	6	-1	1	0	cupcake_07s.jpg	0	0.0	0	95.0150927939685	95.06507011968641	0.0499773257179186	110718
110.818	50	359	0	0	palm_tree	1102	50	1	stimuli\palm_tree\palm_tree_09s.jpg	8	-1	1	1	palm_tree_09s.jpg	0	0.0	0	95.11509474448391	95.16508279781559	0.0499880533316173	110818
110.918	50	360	0	0	laundry_basket	902	51	1	stimuli\laundry_basket\laundry_basket_08s.jpg	7	-1	1	0	laundry_basket_08s.jpg	0	0.0	0	95.2150996206328	95.2650818225229	0.0499822018900886	110918
111.018	50	361	0	0	parachute	1118	52	1	stimuli\parachute\parachute_07s.jpg	6	-1	1	0	parachute_07s.jpg	0	0.0	0	95.3151047406718	95.3650852359133	0.0499804952414706	111018
111.118	50	362	0	0	caviar	289	53	1	stimuli\caviar\caviar_03s.jpg	2	-1	1	0	caviar_03s.jpg	1	0.292162494268268	1	95.4151079101721	95.4650820663664	0.0499741561943665	111118
111.218	50	363	0	0	bok_choy	156	54	1	stimuli\bok_choy\bok_choy_09s.jpg	8	-1	1	0	bok_choy_09s.jpg	0	0.0	0	95.515104009246	95.56508596730421	0.0499819580581971	111218
111.318	50	364	0	0	backdrop	47	55	1	stimuli\backdrop\backdrop_06s.jpg	5	-1	1	0	backdrop_06s.jpg	0	0.0	0	95.61511473683642	95.6650910873432	0.0499763505067676	111318
111.418	50	365	0	0	moccasin	1010	56	1	stimuli\moccasin\moccasin_06s.jpg	5	-1	1	0	moccasin_06s.jpg	0	0.0	0	95.7151130301645	95.76509401301149	0.0499809828470461	111418
111.518	50	366	0	0	mantle	969	57	1	stimuli\mantle\mantle_10s.jpg	9	-1	1	0	mantle_10s.jpg	0	0.0	0	95.8151120549301	95.8650937692146	0.0499817142845131	111518
111.618	50	367	0	0	latte	901	58	1	stimuli\latte\latte_12s.jpg	11	-1	1	0	latte_12s.jpg	0	0.0	0	95.9151476511615	95.9650998644647	0.049952213303186	111618
111.718	50	368	0	0	enchilada	556	59	1	stimuli\enchilada\enchilada_10s.jpg	9	-1	1	0	enchilada_10s.jpg	0	0.0	0	96.0151225387817	96.06513082829771	0.0500082895159721	111718
111.818	50	369	0	0	match	983	60	1	stimuli\match\match_09s.jpg	8	-1	1	0	match_09s.jpg	0	0.0	0	96.1151488702162	96.16513351019242	0.0499846399761736	111818
111.918	50	370	0	0	mashed_potato	979	61	1	stimuli\mashed_potato\mashed_potato_09s.jpg	8	-1	1	0	mashed_potato_09s.jpg	0	0.0	0	96.21515277115401	96.2651344854385	0.0499817142845131	111918
112.018	50	371	0	0	saw	1366	62	1	stimuli\saw\saw_10s.jpg	9	-1	1	0	saw_10s.jpg	0	0.0	0	96.31515667209169	96.36511278635591	0.0499561142642051	112018
112.118	50	372	0	0	sequin	1404	63	1	stimuli\sequin\sequin_03s.jpg	2	-1	1	0	sequin_03s.jpg	0	0.0	0	96.4151320473175	96.4651435064152	0.0500114590977319	112118
112.218	50	373	0	0	air_pump	6	64	1	stimuli\air_pump\air_pump_06s.jpg	5	-1	1	0	air_pump_06s.jpg	0	0.0	0	96.5151595978532	96.5651405807002	0.0499809828470461	112218
112.318	50	374	0	0	screw	1390	65	1	stimuli\screw\screw_10s.jpg	9	-1	1	0	screw_10s.jpg	0	0.0	0	96.6151415558998	96.6651188816177	0.0499773257179186	112318
112.418	50	375	0	0	rooster	1330	66	1	stimuli\rooster\rooster_12s.jpg	11	-1	1	0	rooster_12s.jpg	0	0.0	0	96.7151417997084	96.76512131973871	0.0499795200303197	112418
112.518	50	376	0	0	gopher	694	67	1	stimuli\gopher\gopher_12s.jpg	11	-1	1	0	gopher_12s.jpg	0	0.0	0	96.8151435063919	96.86512814636811	0.0499846399761736	112518
112.618	50	377	0	0	dessert	481	68	1	stimuli\dessert\dessert_12s.jpg	11	-1	1	0	dessert_12s.jpg	0	0.0	0	96.9151439940324	96.96512424544201	0.0499802514095791	112618
112.718	50	378	0	0	cigarette_butt	345	69	1	stimuli\cigarette_butt\cigarette_butt_08s.jpg	7	-1	1	0	cigarette_butt_08s.jpg	0	0.0	0	97.0151439940091	97.0651242454187	0.0499802514095791	112718
112.818	50	379	0	0	boxing_gloves	183	70	1	stimuli\boxing_gloves\boxing_gloves_06s.jpg	5	-1	1	0	boxing_gloves_06s.jpg	0	0.0	0	97.11515447782591	97.1651293654577	0.0499748876318336	112818
112.918	50	380	0	0	macaroni	952	71	1	stimuli\macaroni\macaroni_12s.jpg	11	-1	1	0	macaroni_12s.jpg	0	0.0	0	97.2151491140248	97.26513009687191	0.0499809828470461	112918
113.018	50	381	0	0	hairdryer	735	72	1	stimuli\hairdryer\hairdryer_06s.jpg	5	-1	1	0	hairdryer_06s.jpg	0	0.0	0	97.31515545304859	97.3651422873372	0.0499868342885748	113018
113.118	50	382	0	0	bell	116	73	1	stimuli\bell\bell_04s.jpg	3	-1	1	0	bell_04s.jpg	0	0.0	0	97.41516057308759	97.4651405806653	0.0499800075776875	113118
113.218	50	383	0	0	piano	1165	74	1	stimuli\piano\piano_09n.jpg	8	-1	1	0	piano_09n.jpg	0	0.0	0	97.5151610606699	97.5651403368684	0.0499792761984281	113218
113.318	50	384	0	0	whoopee_cushion	1814	75	1	stimuli\whoopee_cushion\whoopee_cushion_07s.jpg	6	-1	1	0	whoopee_cushion_07s.jpg	0	0.0	0	97.61516130447849	97.6651747140568	0.0500134095782414	113318
113.418	50	385	0	0	sunroof	1586	76	1	stimuli\sunroof\sunroof_03s.jpg	2	-1	1	0	sunroof_03s.jpg	0	0.0	0	97.7151778835687	97.765173982596	0.0499960990273394	113418
113.518	50	386	0	0	racehorse	1267	77	1	stimuli\racehorse\racehorse_04s.jpg	3	-1	1	0	racehorse_04s.jpg	0	0.0	0	97.8151956816437	97.86516154831041	0.0499658666667528	113518
113.618	50	387	0	0	hopscotch	796	78	1	stimuli\hopscotch\hopscotch_11s.jpg	10	-1	1	0	hopscotch_11s.jpg	0	0.0	0	97.9151771521429	97.96514935785672	0.049972205713857	113618
113.718	50	388	0	0	swing_set	1599	79	1	stimuli\swing_set\swing_set_07s.jpg	6	-1	1	0	swing_set_07s.jpg	0	0.0	0	98.0151720321155	98.0651549654431	0.0499829333275557	113718
113.818	50	389	0	0	juicer2	856	80	1	stimuli\juicer2\juicer2_09s.jpg	8	-1	1	0	juicer2_09s.jpg	0	0.0	0	98.115179102635	98.16515594068909	0.0499768380541354	113818
113.918	50	390	0	0	walker2	1774	81	1	stimuli\walker2\walker2_02s.jpg	1	-1	1	0	walker2_02s.jpg	0	0.0	0	98.2152115292847	98.26517178834179	0.0499602590571158	113918
114.018	50	391	0	0	tree	1708	82	1	stimuli\tree\tree_08s.jpg	7	-1	1	0	tree_08s.jpg	0	0.0	0	98.31519373116319	98.3651917807292	0.0499980495660566	114018
114.118	50	392	0	0	seed	1401	83	1	stimuli\seed\seed_01b.jpg	0	-1	1	0	seed_01b.jpg	0	0.0	0	98.4152127483394	98.4651954378351	0.0499826894956641	114118
114.218	50	393	0	0	tongs	1674	84	1	stimuli\tongs\tongs_01s.jpg	0	-1	1	0	tongs_01s.jpg	0	0.0	0	98.5151947064442	98.56516739976361	0.0499726933194324	114218
114.318	50	394	0	0	baseball_bat	79	85	1	stimuli\baseball_bat\baseball_bat_08s.jpg	7	-1	1	0	baseball_bat_08s.jpg	0	0.0	0	98.61519129306541	98.66517398261931	0.0499826895538718	114318
114.418	50	395	0	0	wing	1827	86	1	stimuli\wing\wing_04s.jpg	3	-1	1	0	wing_04s.jpg	0	0.0	0	98.71518934261991	98.76517593307649	0.0499865904566832	114418
114.518	50	396	0	0	lid	923	87	1	stimuli\lid\lid_07s.jpg	6	-1	1	0	lid_07s.jpg	0	0.0	0	98.81519933883101	98.8651825159322	0.0499831771012396	114518
114.618	50	397	0	0	thread	1651	88	1	stimuli\thread\thread_06s.jpg	5	-1	1	0	thread_06s.jpg	0	0.0	0	98.9151966568897	98.9651761769201	0.0499795200303197	114618
114.718	50	398	0	0	cart	278	89	1	stimuli\cart\cart_07s.jpg	6	-1	1	0	cart_07s.jpg	0	0.0	0	99.0152000702219	99.06519348738951	0.0499934171675704	114718
114.818	50	399	0	0	net	1057	90	1	stimuli\net\net_12s.jpg	11	-1	1	0	net_12s.jpg	0	0.0	0	99.11520250834292	99.16517251974442	0.0499700114014558	114818
114.918	50	400	0	0	fuse	652	91	1	stimuli\fuse\fuse_03s.jpg	2	-1	1	0	fuse_03s.jpg	0	0.0	0	99.2152366416994	99.26521445502291	0.049977813323494	114918
115.018	50	401	0	0	kiwi	876	92	1	stimuli\kiwi\kiwi_11s.jpg	10	-1	1	0	kiwi_11s.jpg	0	0.0	0	99.3152415179065	99.36519446264721	0.049952944740653	115018
115.118	50	402	0	0	spinach	1515	93	1	stimuli\spinach\spinach_03s.jpg	2	-1	1	0	spinach_03s.jpg	0	0.0	0	99.41520982264771	99.4651934873546	0.049983664706815006	115118
115.218	50	403	0	0	peeler	1138	94	1	stimuli\peeler\peeler_06s.jpg	5	-1	1	0	peeler_06s.jpg	0	0.0	0	99.5152110416675	99.56519446260059	0.0499834209331311	115218
115.318	50	404	0	0	duct	527	95	1	stimuli\duct\duct_03s.jpg	2	-1	1	0	duct_03s.jpg	0	0.0	0	99.6152134797885	99.6651986073703	0.0499851275817491	115318
115.418	50	405	0	0	brace	186	96	1	stimuli\brace\brace_02s.jpg	1	-1	1	0	brace_02s.jpg	0	0.0	0	99.7152171368944	99.7652025083662	0.0499853714718483	115418
115.518	50	406	0	0	lighter	928	97	1	stimuli\lighter\lighter_07s.jpg	6	-1	1	0	lighter_07s.jpg	0	0.0	0	99.8152283521486	99.86521226074551	0.0499839085969143	115518
115.618	50	407	0	0	beet	114	98	1	stimuli\beet\beet_06s.jpg	5	-1	1	0	beet_06s.jpg	0	0.0	0	99.9152271331404	99.9652093350305	0.0499822018900886	115618
115.718	50	408	0	0	cashew	281	99	1	stimuli\cashew\cashew_05s.jpg	4	-1	1	0	cashew_05s.jpg	0	0.0	0	100.015231521684	100.06522493885099	0.0499934171675704	115718
115.818	50	409	0	0	playing_card	1199	100	1	stimuli\playing_card\playing_card_01b.jpg	0	-1	1	0	playing_card_01b.jpg	0	0.0	0	100.115262241685	100.16522176930401	0.0499595276196487	115818
115.918	50	410	0	0	taco	1613	101	1	stimuli\taco\taco_04s.jpg	3	-1	1	0	taco_04s.jpg	0	0.0	0	100.21526199788799	100.265224207425	0.0499622095376253	115918
116.018	50	411	0	0	cookie_cutter	401	102	1	stimuli\cookie_cutter\cookie_cutter_09s.jpg	8	-1	1	0	cookie_cutter_09s.jpg	0	0.0	0	100.31523761694599	100.365220550273	0.0499829333275557	116018
116.118	50	412	0	0	candy_bar	256	103	1	stimuli\candy_bar\candy_bar_05s.jpg	4	-1	1	0	candy_bar_05s.jpg	0	0.0	0	100.41524151788299	100.465219818812	0.0499783009290695	116118
116.218	50	413	0	0	rocket	1320	104	1	stimuli\rocket\rocket_07s.jpg	6	-1	1	0	rocket_07s.jpg	0	0.0	0	100.515240055043	100.56523883598899	0.04999878094531599	116218
116.318	50	414	0	0	hip	780	105	1	stimuli\hip\hip_08s.jpg	7	-1	1	0	hip_08s.jpg	0	0.0	0	100.61524712550501	100.665221525473	0.0499743999680504	116318
116.418	50	415	0	0	mail	959	106	1	stimuli\mail\mail_03s.jpg	2	-1	1	0	mail_03s.jpg	0	0.0	0	100.71524493122699	100.76522640168001	0.0499814704526216	116418
116.518	50	416	0	0	cymbal	468	107	1	stimuli\cymbal\cymbal_02s.jpg	1	-1	1	0	cymbal_02s.jpg	0	0.0	0	100.815249807434	100.86523371597299	0.0499839085387066	116518
116.618	50	417	0	0	extinguisher	563	108	1	stimuli\extinguisher\extinguisher_02s.jpg	1	-1	1	0	extinguisher_02s.jpg	0	0.0	0	100.91525175789101	100.96523103409001	0.0499792761984281	116618
116.718	50	418	0	0	grain	698	109	1	stimuli\grain\grain_06s.jpg	5	-1	1	0	grain_06s.jpg	0	0.0	0	101.015253952181	101.06523444742201	0.0499804952414706	116718
116.818	50	419	0	0	graffiti	697	110	1	stimuli\graffiti\graffiti_04s.jpg	3	-1	1	0	graffiti_04s.jpg	0	0.0	0	101.11525078263399	101.16524493123899	0.0499941486050375	116818
116.918	50	420	0	0	kangaroo	862	111	1	stimuli\kangaroo\kangaroo_09n.jpg	8	-1	1	0	kangaroo_09n.jpg	0	0.0	0	101.21525858459101	101.26523907977399	0.049980495183263	116918
117.018	50	421	0	0	french_fries	641	112	1	stimuli\french_fries\french_fries_01b.jpg	0	-1	1	0	french_fries_01b.jpg	0	0.0	0	101.31526589882601	101.36525078263399	0.0499848838080652	117018
117.118	50	422	0	0	spear	1510	113	1	stimuli\spear\spear_01s.jpg	0	-1	1	0	spear_01s.jpg	0	0.0	0	101.415298325534	101.46527248172801	0.0499741561943665	117118
117.218	50	423	0	0	poppy	1224	114	1	stimuli\poppy\poppy_06s.jpg	5	-1	1	0	poppy_06s.jpg	0	0.0	0	101.51529588742399	101.565277114103	0.0499812266789377	117218
117.318	50	424	0	0	snowsuit	1486	115	1	stimuli\snowsuit\snowsuit_08s.jpg	7	-1	1	0	snowsuit_08s.jpg	0	0.0	0	101.615279552178	101.665252001723	0.0499724495457485	117318
117.418	50	425	0	0	tuxedo	1738	116	1	stimuli\tuxedo\tuxedo_07s.jpg	6	-1	1	0	tuxedo_07s.jpg	0	0.0	0	101.715271018853	101.76525639026698	0.0499853714136407	117418
117.518	50	426	0	0	kale	860	117	1	stimuli\kale\kale_11s.jpg	10	-1	1	0	kale_11s.jpg	0	0.0	0	101.815277114103	101.865262729349	0.0499856152455322	117518
117.618	50	427	0	0	granola	701	118	1	stimuli\granola\granola_10s.jpg	9	-1	1	0	granola_10s.jpg	0	0.0	0	101.915282477916	101.965273944545	0.0499914666288532	117618
117.718	50	428	0	0	blinder	141	119	1	stimuli\blinder\blinder_01b.jpg	0	-1	1	0	blinder_01b.jpg	0	0.0	0	102.01530978462	102.06528101506399	0.0499712304444984	117718
117.818	50	429	0	0	coffee_table	381	120	1	stimuli\coffee_table\coffee_table_02s.jpg	1	-1	1	0	coffee_table_02s.jpg	0	0.0	0	102.115286622662	102.165270287427	0.0499836647650227	117818
117.918	50	430	0	0	rose	1334	121	1	stimuli\rose\rose_02s.jpg	1	-1	1	0	rose_02s.jpg	0	0.0	0	102.21528540365401	102.26526736171199	0.0499819580581971	117918
118.018	50	431	0	0	curling_iron	463	122	1	stimuli\curling_iron\curling_iron_09s.jpg	8	-1	1	0	curling_iron_09s.jpg	0	0.0	0	102.315293449326	102.36527516361099	0.0499817142845131	118018
118.118	50	432	0	0	dumpling	532	123	1	stimuli\dumpling\dumpling_11s.jpg	10	-1	1	0	dumpling_11s.jpg	0	0.0	0	102.415295887447	102.465268824599	0.049972937151324004	118118
118.218	50	433	0	0	cilantro	347	124	1	stimuli\cilantro\cilantro_03s.jpg	2	-1	1	0	cilantro_03s.jpg	0	0.0	0	102.515321731276	102.565287354111	0.0499656228348613	118218
118.318	50	434	0	0	cake_mix	238	125	1	stimuli\cake_mix\cake_mix_12s.jpg	11	-1	1	0	cake_mix_12s.jpg	0	0.0	0	102.615312222682	102.665283209353	0.0499709866708145	118318
118.418	50	435	0	0	speaker	1509	126	1	stimuli\speaker\speaker_03s.jpg	2	-1	1	0	speaker_03s.jpg	0	0.0	0	102.71529735031099	102.76528320933001	0.0499858590192162	118418
118.518	50	436	0	0	forklift	635	127	1	stimuli\forklift\forklift_12s.jpg	11	-1	1	0	forklift_12s.jpg	0	0.0	0	102.815303933166	102.86528515984502	0.0499812266789377	118518
118.618	50	437	0	0	eclair	544	128	1	stimuli\eclair\eclair_11s.jpg	10	-1	1	0	eclair_11s.jpg	0	0.0	0	102.91530539601801	102.965316855058	0.0500114590395242	118618
118.718	50	438	0	0	satellite_dish	1361	129	1	stimuli\satellite_dish\satellite_dish_05s.jpg	4	-1	1	0	satellite_dish_05s.jpg	0	0.0	0	103.01531978079599	103.065302470291	0.0499826894956641	118718
118.818	50	439	0	0	licorice	922	130	1	stimuli\licorice\licorice_11s.jpg	10	-1	1	0	licorice_11s.jpg	0	0.0	0	103.115342455101	103.165330508433	0.0499880533316173	118818
118.918	50	440	0	0	koala	884	131	1	stimuli\koala\koala_10s.jpg	9	-1	1	0	koala_10s.jpg	0	0.0	0	103.215343674121	103.265312466479	0.0499687923584133	118918
119.018	50	441	0	0	cookie_sheet	402	132	1	stimuli\cookie_sheet\cookie_sheet_06s.jpg	5	-1	1	0	cookie_sheet_06s.jpg	0	0.0	0	103.31534586840999	103.365333434136	0.0499875657260418	119018
119.118	50	442	0	0	bomb	160	133	1	stimuli\bomb\bomb_12s.jpg	11	-1	1	0	bomb_12s.jpg	0	0.0	0	103.415348794137	103.46531392936599	0.0499651352292858	119118
119.218	50	443	0	0	mustache	1043	134	1	stimuli\mustache\mustache_08s.jpg	7	-1	1	0	mustache_08s.jpg	0	0.0	0	103.515334165539	103.565311491257	0.0499773257179186	119218
119.318	50	444	0	0	brass_knuckles	193	135	1	stimuli\brass_knuckles\brass_knuckles_07s.jpg	6	-1	1	0	brass_knuckles_07s.jpg	0	0.0	0	103.61534050462099	103.665317098901	0.0499765942804515	119318
119.418	50	445	0	0	tumbleweed	1727	136	1	stimuli\tumbleweed\tumbleweed_01b.jpg	0	-1	1	0	tumbleweed_01b.jpg	0	0.0	0	103.71534172364001	103.76532197504999	0.0499802514095791	119418
119.518	50	446	0	0	tackle	1612	137	1	stimuli\tackle\tackle_10s.jpg	9	-1	1	0	tackle_10s.jpg	0	0.0	0	103.815340992238	103.86531831795601	0.0499773257179186	119518
119.618	50	447	0	0	memory_stick	995	138	1	stimuli\memory_stick\memory_stick_07s.jpg	6	-1	1	0	memory_stick_07s.jpg	0	0.0	0	103.915343430301	103.965323681768	0.0499802514677867	119618
119.718	50	448	0	0	marmalade	976	139	1	stimuli\marmalade\marmalade_09s.jpg	8	-1	1	0	marmalade_09s.jpg	0	0.0	0	104.015347818902	104.06532758270599	0.0499797638040036	119718
119.818	50	449	0	0	guillotine	721	140	1	stimuli\guillotine\guillotine_05s.jpg	4	-1	1	0	guillotine_05s.jpg	0	0.0	0	104.11535001319099	104.165330752207	0.0499807390151545	119818
119.918	50	450	0	0	cellphone	293	141	1	stimuli\cellphone\cellphone_04s.jpg	3	-1	1	0	cellphone_04s.jpg	0	0.0	0	104.215351963649	104.265339529375	0.0499875657260418	119918
120.018	50	451	0	0	lampshade	893	142	1	stimuli\lampshade\lampshade_04s.jpg	3	-1	1	0	lampshade_04s.jpg	0	0.0	0	104.31535805889901	104.365335140785	0.049977081886027	120018
120.118	50	452	0	0	walker1	1773	143	1	stimuli\walker1\walker1_04s.jpg	3	-1	1	0	walker1_04s.jpg	0	0.0	0	104.41535635222701	104.465344161785	0.0499878095579334	120118
120.218	50	453	0	0	chest1	319	144	1	stimuli\chest1\chest1_04s.jpg	3	-1	1	0	chest1_04s.jpg	0	0.0	0	104.51535879034799	104.56532928935499	0.0499704990070313	120218
120.318	50	454	0	0	binoculars	127	145	1	stimuli\binoculars\binoculars_07s.jpg	6	-1	1	0	binoculars_07s.jpg	0	0.0	0	104.61534903798001	104.665333434124	0.0499843961442821	120318
120.418	50	455	0	0	drumstick	523	146	1	stimuli\drumstick\drumstick_08s.jpg	7	-1	1	0	drumstick_08s.jpg	0	0.0	0	104.71535171987499	104.765338554163	0.0499868342885748	120418
120.518	50	456	0	0	pot	1230	147	1	stimuli\pot\pot_07s.jpg	6	-1	1	0	pot_07s.jpg	0	0.0	0	104.81536683603201	104.8653470875	0.0499802514677867	120518
120.618	50	457	0	0	garlic	658	148	1	stimuli\garlic\garlic_04s.jpg	3	-1	1	0	garlic_04s.jpg	0	0.0	0	104.915373175114	104.965352695086	0.049979519972112	120618
120.718	50	458	0	0	french_horn	642	149	1	stimuli\french_horn\french_horn_01s.jpg	0	-1	1	0	french_horn_01s.jpg	0	0.0	0	105.015377319884	105.065356108418	0.049978788534645	120718
120.818	50	459	0	0	football_helmet	630	150	1	stimuli\football_helmet\football_helmet_09s.jpg	8	-1	1	0	football_helmet_09s.jpg	0	0.0	0	105.115381708427	105.16536586079701	0.0499841523705982	120818
120.918	50	460	0	0	pastry	1124	151	1	stimuli\pastry\pastry_01b.jpg	0	-1	1	0	pastry_01b.jpg	0	0.0	0	105.215384634153	105.26536464178899	0.0499800076358952	120918
121.018	50	461	0	0	berry	121	152	1	stimuli\berry\berry_02s.jpg	1	-1	1	0	berry_02s.jpg	0	0.0	0	105.31538365891899	105.365365373204	0.0499817142845131	121018
121.118	50	462	0	0	gavel	665	153	1	stimuli\gavel\gavel_12s.jpg	11	-1	1	0	gavel_12s.jpg	0	0.0	0	105.415381464642	105.46536829893	0.0499868342885748	121118
121.218	50	463	0	0	camera1	246	154	1	stimuli\camera1\camera1_12s.jpg	11	-1	1	0	camera1_12s.jpg	0	0.0	0	105.51538926654	105.565367811301	0.0499785447609611	121218
121.318	50	464	0	0	pulley	1250	155	1	stimuli\pulley\pulley_01b.jpg	0	-1	1	0	pulley_01b.jpg	0	0.0	0	105.615388291306	105.665368298942	0.0499800076358952	121318
121.418	50	465	0	0	cutting_board	467	156	1	stimuli\cutting_board\cutting_board_05s.jpg	4	-1	1	0	cutting_board_05s.jpg	0	0.0	0	105.715389754158	105.76537585700899	0.0499861028511077	121418
121.518	50	466	0	0	peach	1129	157	1	stimuli\peach\peach_06s.jpg	5	-1	1	0	peach_06s.jpg	0	0.0	0	105.815414622775	105.865398043708	0.0499834209331311	121518
121.618	50	467	0	0	mustard	1044	158	1	stimuli\mustard\mustard_09s.jpg	8	-1	1	1	mustard_09s.jpg	0	0.0	0	105.915419986588	105.965402188478	0.0499822018900886	121618
121.718	50	468	0	0	polaroid	1212	159	1	stimuli\polaroid\polaroid_05s.jpg	4	-1	1	0	polaroid_05s.jpg	0	0.0	0	106.015410721826	106.06538560940001	0.0499748875736259	121718
121.818	50	469	0	0	wheel	1806	160	1	stimuli\wheel\wheel_10s.jpg	9	-1	1	0	wheel_10s.jpg	0	0.0	0	106.115405601799	106.16538390272801	0.0499783009290695	121818
121.918	50	470	0	0	cloud	364	161	1	stimuli\cloud\cloud_02s.jpg	1	-1	1	0	cloud_02s.jpg	1	0.350147748657037	1	106.21541120944299	106.26539097318899	0.0499797637457959	121918
122.018	50	471	0	0	earring	540	162	1	stimuli\earring\earring_12s.jpg	11	-1	1	0	earring_12s.jpg	0	0.0	0	106.31541047798201	106.365391948435	0.0499814704526216	122018
122.118	50	472	0	0	catfish	287	163	1	stimuli\catfish\catfish_11s.jpg	10	-1	1	0	catfish_11s.jpg	0	0.0	0	106.415413891315	106.46539999416599	0.0499861028511077	122118
122.218	50	473	0	0	paper_towel	1115	164	1	stimuli\paper_towel\paper_towel_08s.jpg	7	-1	1	0	paper_towel_08s.jpg	0	0.0	0	106.515411940869	106.56539438653299	0.0499824456637725	122218
122.318	50	474	0	0	flypaper	622	165	1	stimuli\flypaper\flypaper_04s.jpg	3	-1	1	0	flypaper_04s.jpg	0	0.0	0	106.615414378932	106.66539853130199	0.0499841523705982	122318
122.418	50	475	0	0	sling	1466	166	1	stimuli\sling\sling_09s.jpg	8	-1	1	0	sling_09s.jpg	0	0.0	0	106.71542656945499	106.76540413894699	0.0499775694916025	122418
122.518	50	476	0	0	polygraph	1217	167	1	stimuli\polygraph\polygraph_09s.jpg	8	-1	1	0	polygraph_09s.jpg	0	0.0	0	106.81542851991301	106.865402919881	0.0499743999680504	122518
122.618	50	477	0	0	lava	903	168	1	stimuli\lava\lava_11s.jpg	10	-1	1	0	lava_11s.jpg	0	0.0	0	106.915429738932	106.965408527525	0.0499787885928527	122618
122.718	50	478	0	0	papaya	1111	169	1	stimuli\papaya\papaya_02s.jpg	1	-1	1	0	papaya_02s.jpg	0	0.0	0	107.015431445616	107.065407064627	0.0499756190110929	122718
122.818	50	479	0	0	fur_coat	650	170	1	stimuli\fur_coat\fur_coat_08s.jpg	7	-1	1	0	fur_coat_08s.jpg	0	0.0	0	107.115432908467	107.165413647541	0.0499807390733622	122818
122.918	50	480	0	0	printer	1240	171	1	stimuli\printer\printer_02s.jpg	1	-1	1	0	printer_02s.jpg	0	0.0	0	107.215434371319	107.265412184643	0.049977813323494	122918
123.018	50	481	0	0	swizzle_stick	1601	172	1	stimuli\swizzle_stick\swizzle_stick_03s.jpg	2	-1	1	0	swizzle_stick_03s.jpg	0	0.0	0	107.315433396085	107.36541901133002	0.0499856152455322	123018
123.118	50	482	0	0	board_game	153	173	1	stimuli\board_game\board_game_11s.jpg	10	-1	1	0	board_game_11s.jpg	0	0.0	0	107.415437540854	107.465422180831	0.0499846399761736	123118
123.218	50	483	0	0	roll	1323	174	1	stimuli\roll\roll_06s.jpg	5	-1	1	0	roll_06s.jpg	0	0.0	0	107.515446074191	107.565420474159	0.0499743999680504	123218
123.318	50	484	0	0	punching_bag	1256	175	1	stimuli\punching_bag\punching_bag_08s.jpg	7	-1	1	0	punching_bag_08s.jpg	0	0.0	0	107.61544217326401	107.66542437515498	0.0499822018900886	123318
123.418	50	485	0	0	cigarette	344	176	1	stimuli\cigarette\cigarette_03s.jpg	2	-1	1	0	cigarette_03s.jpg	0	0.0	0	107.715467041824	107.765438272269	0.0499712304444984	123418
123.518	50	486	0	0	champagne	304	177	1	stimuli\champagne\champagne_02s.jpg	1	-1	1	0	champagne_02s.jpg	0	0.0	0	107.81545119418301	107.86543217703002	0.0499809828470461	123518
123.618	50	487	0	0	cello	292	178	1	stimuli\cello\cello_06s.jpg	5	-1	1	0	cello_06s.jpg	0	0.0	0	107.915449731343	107.965432664671	0.0499829333275557	123618
123.718	50	488	0	0	maple_syrup	971	179	1	stimuli\maple_syrup\maple_syrup_11s.jpg	10	-1	1	0	maple_syrup_11s.jpg	0	0.0	0	108.015458996117	108.06543680944	0.049977813323494	123718
123.818	50	489	0	0	pacifier	1093	180	1	stimuli\pacifier\pacifier_01s.jpg	0	-1	1	0	pacifier_01s.jpg	0	0.0	0	108.115458020882	108.16543973516701	0.0499817142845131	123818
123.918	50	490	0	0	steamroller	1545	181	1	stimuli\steamroller\steamroller_08n.jpg	7	-1	1	0	steamroller_08n.jpg	0	0.0	0	108.215462653257	108.26544314849899	0.0499804952414706	123918
124.018	50	491	0	0	kilt	872	182	1	stimuli\kilt\kilt_04s.jpg	3	-1	1	0	kilt_04s.jpg	0	0.0	0	108.315485083731	108.365464847535	0.0499797638040036	124018
124.118	50	492	0	0	sink	1447	183	1	stimuli\sink\sink_08s.jpg	7	-1	1	0	sink_08s.jpg	0	0.0	0	108.41548727802	108.46546996757401	0.0499826895538718	124118
124.218	50	493	0	0	coat	369	184	1	stimuli\coat\coat_08s.jpg	7	-1	1	0	coat_08s.jpg	0	0.0	0	108.515489472309	108.56544997514	0.0499605028307997	124218
124.318	50	494	0	0	clay	352	185	1	stimuli\clay\clay_06s.jpg	5	-1	1	0	clay_06s.jpg	0	0.0	0	108.61547338089399	108.66545436374099	0.0499809828470461	124318
124.418	50	495	0	0	log	943	186	1	stimuli\log\log_07s.jpg	6	-1	1	0	log_07s.jpg	0	0.0	0	108.71547898848101	108.765458508511	0.0499795200303197	124418
124.518	50	496	0	0	nail_polish	1049	187	1	stimuli\nail_polish\nail_polish_02s.jpg	1	-1	1	0	nail_polish_02s.jpg	0	0.0	0	108.815481914207	108.865460215136	0.0499783009290695	124518
124.618	50	497	0	0	cardboard	272	188	1	stimuli\cardboard\cardboard_10s.jpg	9	-1	1	0	cardboard_10s.jpg	0	0.0	0	108.91548167041	108.96548630279699	0.0500046323868446	124618
124.718	50	498	0	0	scorpion	1384	189	1	stimuli\scorpion\scorpion_03n.jpg	2	-1	1	0	scorpion_03n.jpg	0	0.0	0	109.015487034223	109.06546265323401	0.0499756190110929	124718
124.818	50	499	0	0	webcam	1799	190	1	stimuli\webcam\webcam_01b.jpg	0	-1	1	0	webcam_01b.jpg	0	0.0	0	109.11548727803199	109.16546752944099	0.0499802514095791	124818
124.918	50	500	0	0	horn	797	191	1	stimuli\horn\horn_02s.jpg	1	-1	1	0	horn_02s.jpg	0	0.0	0	109.215489472321	109.265471674211	0.0499822018900886	124918
125.018	50	501	0	0	microscope	999	192	1	stimuli\microscope\microscope_11s.jpg	10	-1	1	0	microscope_11s.jpg	0	0.0	0	109.315489228524	109.365476550418	0.0499873218941502	125018
125.118	50	502	0	0	cordon_bleu	408	193	1	stimuli\cordon_bleu\cordon_bleu_10s.jpg	9	-1	1	0	cordon_bleu_10s.jpg	0	0.0	0	109.415511171392	109.46546679805	0.0499556266586296	125118
125.218	50	503	0	0	tricycle	1711	194	1	stimuli\tricycle\tricycle_07s.jpg	6	-1	1	0	tricycle_07s.jpg	0	0.0	0	109.515496542794	109.56549556757099	0.0499990247772075	125218
125.318	50	504	0	0	waffle	1770	195	1	stimuli\waffle\waffle_10s.jpg	9	-1	1	0	waffle_10s.jpg	0	0.0	0	109.61552360566601	109.66548313328501	0.0499595276196487	125318
125.418	50	505	0	0	antelope	26	196	1	stimuli\antelope\antelope_05n.jpg	4	-1	1	0	antelope_05n.jpg	0	0.0	0	109.715523118037	109.76548045134399	0.0499573333072476	125418
125.518	50	506	0	0	string_cheese	1573	197	1	stimuli\string_cheese\string_cheese_11s.jpg	10	-1	1	0	string_cheese_11s.jpg	0	0.0	0	109.81550629518499	109.865486790426	0.0499804952414706	125518
125.618	50	507	0	0	hay	761	198	1	stimuli\hay\hay_06s.jpg	5	-1	1	0	hay_06s.jpg	0	0.0	0	109.91550483234501	109.965484352317	0.049979519972112	125618
125.718	50	508	0	0	staple	1537	199	1	stimuli\staple\staple_03s.jpg	2	-1	1	0	staple_03s.jpg	0	0.0	0	110.01550800184499	110.06548874091801	0.0499807390733622	125718
125.818	50	509	0	0	ski_pole	1455	200	1	stimuli\ski_pole\ski_pole_08s.jpg	7	-1	1	0	ski_pole_08s.jpg	0	0.0	0	110.115508245653	110.165493617067	0.0499853714136407	125818
125.918	50	510	0	0	meatball	989	201	1	stimuli\meatball\meatball_11s.jpg	10	-1	1	0	meatball_11s.jpg	0	0.0	0	110.215518485697	110.26549605518801	0.0499775694916025	125918
126.018	50	511	0	0	seafood	1394	202	1	stimuli\seafood\seafood_08s.jpg	7	-1	1	0	seafood_08s.jpg	0	0.0	0	110.315517754236	110.36549898091499	0.0499812266789377	126018
126.118	50	512	0	0	chinaware	331	203	1	stimuli\chinaware\chinaware_04s.jpg	3	-1	1	0	chinaware_04s.jpg	0	0.0	0	110.415522386611	110.46550556377	0.0499831771594472	126118
126.218	50	513	0	0	counter	424	204	1	stimuli\counter\counter_04s.jpg	3	-1	1	0	counter_04s.jpg	0	0.0	0	110.515525799943	110.56550678279	0.0499809828470461	126218
126.318	50	514	0	0	tweezers	1739	205	1	stimuli\tweezers\tweezers_05s.jpg	4	-1	1	0	tweezers_05s.jpg	0	0.0	0	110.615526775189	110.665501662821	0.0499748876318336	126318
126.418	50	515	0	0	loincloth	944	206	1	stimuli\loincloth\loincloth_01b.jpg	0	-1	1	0	loincloth_01b.jpg	0	0.0	0	110.71553335804501	110.765510927595	0.0499775695498101	126418
126.518	50	516	0	0	polar_bear	1211	207	1	stimuli\polar_bear\polar_bear_12s.jpg	11	-1	1	0	polar_bear_12s.jpg	0	0.0	0	110.815531651373	110.865513853263	0.0499822018900886	126518
126.618	50	517	0	0	monkey	1017	208	1	stimuli\monkey\monkey_03s.jpg	2	-1	1	0	monkey_03s.jpg	0	0.0	0	110.91550897707899	110.965520679951	0.0500117028714158	126618
126.718	50	518	0	0	grater	708	209	1	stimuli\grater\grater_12s.jpg	11	-1	1	0	grater_12s.jpg	0	0.0	0	111.01554579235399	111.06552019232201	0.0499743999680504	126718
126.818	50	519	0	0	cardinal	274	210	1	stimuli\cardinal\cardinal_07s.jpg	6	-1	1	0	cardinal_07s.jpg	0	0.0	0	111.115539697115	111.165527262841	0.0499875657260418	126818
126.918	50	520	0	0	blower	145	211	1	stimuli\blower\blower_06s.jpg	5	-1	1	0	blower_06s.jpg	0	0.0	0	111.215566759987	111.265531651385	0.0499648913973942	126918
127.018	50	521	0	0	retainer	1303	212	1	stimuli\retainer\retainer_07s.jpg	6	-1	1	0	retainer_07s.jpg	0	0.0	0	111.315546280006	111.36552214279101	0.0499758627847768	127018
127.118	50	522	0	0	possum	1228	213	1	stimuli\possum\possum_02s.jpg	1	-1	1	0	possum_02s.jpg	0	0.0	0	111.415545548545	111.46555432572501	0.0500087771797553	127118
127.218	50	523	0	0	fire_hydrant	592	214	1	stimuli\fire_hydrant\fire_hydrant_09s.jpg	8	-1	1	0	fire_hydrant_09s.jpg	0	0.0	0	111.51557334285499	111.565548230428	0.0499748875736259	127218
127.318	50	524	0	0	snack	1475	215	1	stimuli\snack\snack_02s.jpg	1	-1	1	0	snack_02s.jpg	0	0.0	0	111.615558226651	111.665553350467	0.0499951238161884	127318
127.418	50	525	0	0	biscuit	133	216	1	stimuli\biscuit\biscuit_11s.jpg	10	-1	1	0	biscuit_11s.jpg	0	0.0	0	111.71556042094	111.765537258994	0.0499768380541354	127418
127.518	50	526	0	0	briefcase	200	217	1	stimuli\briefcase\briefcase_03s.jpg	2	-1	1	0	briefcase_03s.jpg	0	0.0	0	111.815558470436	111.865534333279	0.0499758628429845	127518
127.618	50	527	0	0	arrow	38	218	1	stimuli\arrow\arrow_03s.jpg	2	-1	1	0	arrow_03s.jpg	0	0.0	0	111.91555530094801	111.965527506603	0.0499722056556493	127618
127.718	50	528	0	0	weed	1802	219	1	stimuli\weed\weed_12s.jpg	11	-1	1	0	weed_12s.jpg	0	0.0	0	112.015551399963	112.06553018855601	0.0499787885928527	127718
127.818	50	529	0	0	green_beans	712	220	1	stimuli\green_beans\green_beans_10s.jpg	9	-1	1	0	green_beans_10s.jpg	0	0.0	0	112.11555237521002	112.165534820931	0.0499824457219802	127818
127.918	50	530	0	0	pheasant	1160	221	1	stimuli\pheasant\pheasant_12s.jpg	11	-1	1	0	pheasant_12s.jpg	0	0.0	0	112.215560664772	112.265539453307	0.049978788534645	127918
128.018	50	531	0	0	wedding_cake	1800	222	1	stimuli\wedding_cake\wedding_cake_07s.jpg	6	-1	1	0	wedding_cake_07s.jpg	0	0.0	0	112.31557602476101	112.365572855226	0.0499968304648064	128018
128.118	50	532	0	0	dip	487	223	1	stimuli\dip\dip_08s.jpg	7	-1	1	0	dip_08s.jpg	0	0.0	0	112.415595529543	112.46555725141701	0.0499617218738422	128118
128.218	50	533	0	0	boa	150	224	1	stimuli\boa\boa_05s.jpg	4	-1	1	0	boa_05s.jpg	0	0.0	0	112.515580900945	112.565561883792	0.0499809828470461	128218
128.318	50	534	0	0	hatbox	758	225	1	stimuli\hatbox\hatbox_07s.jpg	6	-1	1	0	hatbox_07s.jpg	0	0.0	0	112.615578950499	112.66556066472499	0.0499817142263055	128318
128.418	50	535	0	0	jet	847	226	1	stimuli\jet\jet_01b.jpg	0	-1	1	0	jet_01b.jpg	0	0.0	0	112.71558626479201	112.76556334667801	0.049977081886027	128418
128.518	50	536	0	0	jewelry	850	227	1	stimuli\jewelry\jewelry_04s.jpg	3	-1	1	0	jewelry_04s.jpg	0	0.0	0	112.815581388597	112.86556334665501	0.0499819580581971	128518
128.618	50	537	0	0	flan	609	228	1	stimuli\flan\flan_12s.jpg	11	-1	1	0	flan_12s.jpg	0	0.0	0	112.915584801929	112.96556797903	0.0499831771012396	128618
128.718	50	538	0	0	nest	1056	229	1	stimuli\nest\nest_12s.jpg	11	-1	1	0	nest_12s.jpg	0	0.0	0	113.01559065334699	113.065572367632	0.0499817142845131	128718
128.818	50	539	0	0	beard	106	230	1	stimuli\beard\beard_12s.jpg	11	-1	1	0	beard_12s.jpg	0	0.0	0	113.115594066679	113.165572367609	0.0499783009290695	128818
128.918	50	540	0	0	roadsweeper	1316	231	1	stimuli\roadsweeper\roadsweeper_05s.jpg	4	-1	1	0	roadsweeper_05s.jpg	0	0.0	0	113.21560040570299	113.26556675997601	0.0499663542723283	128918
129.018	50	541	0	0	ice_cube	819	232	1	stimuli\ice_cube\ice_cube_05s.jpg	4	-1	1	0	ice_cube_05s.jpg	0	0.0	0	113.31558919046101	113.365568954265	0.0499797638040036	129018
129.118	50	542	0	0	broccoli	201	233	1	stimuli\broccoli\broccoli_06s.jpg	5	-1	1	0	broccoli_06s.jpg	1	0.0	0	113.415594554273	113.465572367597	0.049977813323494	129118
129.218	50	543	0	0	rolling_pin	1328	234	1	stimuli\rolling_pin\rolling_pin_05s.jpg	4	-1	1	0	rolling_pin_05s.jpg	0	0.0	0	113.515589190472	113.565575537155	0.0499863466829993	129218
129.318	50	544	0	0	breakfast	197	235	1	stimuli\breakfast\breakfast_02s.jpg	1	-1	1	0	breakfast_02s.jpg	0	0.0	0	113.61559796764	113.66558138857401	0.0499834209331311	129318
129.418	50	545	0	0	incubator	827	236	1	stimuli\incubator\incubator_02s.jpg	1	-1	1	0	incubator_02s.jpg	0	0.0	0	113.71559918666	113.76557968190201	0.0499804952414706	129418
129.518	50	546	0	0	chips	335	237	1	stimuli\chips\chips_11s.jpg	10	-1	1	0	chips_11s.jpg	0	0.0	0	113.815599674301	113.865581388585	0.0499817142845131	129518
129.618	50	547	0	0	neck	1053	238	1	stimuli\neck\neck_09s.jpg	8	-1	1	0	neck_09s.jpg	0	0.0	0	113.915599674277	113.965582363831	0.0499826895538718	129618
129.718	50	548	0	0	fishhook	602	239	1	stimuli\fishhook\fishhook_08s.jpg	7	-1	1	0	fishhook_08s.jpg	0	0.0	0	114.015606988571	114.065586752375	0.0499797638040036	129718
129.818	50	549	0	0	ruler	1341	240	1	stimuli\ruler\ruler_12s.jpg	11	-1	1	0	ruler_12s.jpg	0	0.0	0	114.11560967046499	114.16559674858601	0.0499870781204663	129818
129.918	50	550	0	0	bark	74	241	1	stimuli\bark\bark_05s.jpg	4	-1	1	0	bark_05s.jpg	0	0.0	0	114.21561576571501	114.265591140953	0.049975375237409005	129918
130.018	50	551	0	0	grapevine	704	242	1	stimuli\grapevine\grapevine_09s.jpg	8	-1	1	0	grapevine_09s.jpg	0	0.0	0	114.315611620957	114.36559114093001	0.049979519972112	130018
130.118	50	552	0	0	board	152	243	1	stimuli\board\board_05s.jpg	4	-1	1	0	board_05s.jpg	0	0.0	0	114.415613571473	114.46559918666	0.0499856151873246	130118
130.218	50	553	0	0	scanner	1375	244	1	stimuli\scanner\scanner_01b.jpg	0	-1	1	0	scanner_01b.jpg	0	0.0	0	114.51561747241101	114.565597967652	0.0499804952414706	130218
130.318	50	554	0	0	cement_mixer	294	245	1	stimuli\cement_mixer\cement_mixer_04s.jpg	3	-1	1	0	cement_mixer_04s.jpg	0	0.0	0	114.615622836223	114.665605281945	0.0499824457219802	130318
130.418	50	555	0	0	hubcap	809	246	1	stimuli\hubcap\hubcap_12s.jpg	11	-1	1	0	hubcap_12s.jpg	0	0.0	0	114.71562698099301	114.76562112953998	0.0499941485468298	130418
130.518	50	556	0	0	finger	588	247	1	stimuli\finger\finger_09s.jpg	8	-1	1	0	finger_09s.jpg	0	0.0	0	114.815638683853	114.865614790469	0.0499761066166684	130518
130.618	50	557	0	0	brussels_sprouts	206	248	1	stimuli\brussels_sprouts\brussels_sprouts_12s.jpg	11	-1	1	0	brussels_sprouts_12s.jpg	0	0.0	0	114.91563917143499	114.965629175247	0.0499900038121268	130618
130.718	50	558	0	0	gazelle	666	249	1	stimuli\gazelle\gazelle_06s.jpg	5	-1	1	0	gazelle_06s.jpg	0	0.0	0	115.015645510517	115.06562698097	0.0499814704526216	130718
130.818	50	559	0	0	dolly	501	250	1	stimuli\dolly\dolly_04s.jpg	3	-1	1	0	dolly_04s.jpg	0	0.0	0	115.115647217201	115.16562868765301	0.0499814704526216	130818
130.918	50	560	0	0	windshield_wiper	1821	251	1	stimuli\windshield_wiper\windshield_wiper_01b.jpg	0	-1	1	0	windshield_wiper_01b.jpg	0	0.0	0	115.215647948615	115.265627468587	0.049979519972112	130918
131.018	50	561	0	0	touchpad	1691	252	1	stimuli\touchpad\touchpad_12s.jpg	11	-1	1	0	touchpad_12s.jpg	0	0.0	0	115.315651361947	115.36564063432199	0.0499892723746598	131018
131.118	50	562	0	0	syringe	1604	253	1	stimuli\syringe\syringe_03s.jpg	2	-1	1	0	syringe_03s.jpg	0	0.0	0	115.41565696959199	115.465635758126	0.049978788534645	131118
131.218	50	563	0	0	slug	1472	254	1	stimuli\slug\slug_10s.jpg	9	-1	1	0	slug_10s.jpg	0	0.0	0	115.515653800045	115.565635270497	0.0499814704526216	131218
131.318	50	564	0	0	oar	1068	255	1	stimuli\oar\oar_10s.jpg	9	-1	1	0	oar_10s.jpg	0	0.0	0	115.61566062673201	115.665644047665	0.0499834209331311	131318
131.418	50	565	0	0	jellyfish	845	256	1	stimuli\jellyfish\jellyfish_11s.jpg	10	-1	1	0	jellyfish_11s.jpg	0	0.0	0	115.715665990545	115.76564672956002	0.0499807390151545	131418
131.518	50	566	0	0	spacesuit	1502	257	1	stimuli\spacesuit\spacesuit_03s.jpg	2	-1	1	0	spacesuit_03s.jpg	0	0.0	0	115.81566769716999	115.865648923849	0.0499812266789377	131518
131.618	50	567	0	0	chopsticks	339	258	1	stimuli\chopsticks\chopsticks_04s.jpg	3	-1	1	0	chopsticks_04s.jpg	0	0.0	0	115.91567013529101	115.965655506705	0.0499853714136407	131618
131.718	50	568	0	0	ear	538	259	1	stimuli\ear\ear_05s.jpg	4	-1	1	0	ear_05s.jpg	0	0.0	0	116.01567281718599	116.06565087434099	0.0499780571553856	131718
131.818	50	569	0	0	anvil	28	260	1	stimuli\anvil\anvil_07n.jpg	6	-1	1	0	anvil_07n.jpg	0	0.0	0	116.11567549908101	116.165652337193	0.0499768381123431	131818
131.918	50	570	0	0	vase	1753	261	1	stimuli\vase\vase_12n.jpg	11	-1	1	0	vase_12n.jpg	0	0.0	0	116.215676230553	116.265653800045	0.0499775694916025	131918
132.018	50	571	0	0	diskette	493	262	1	stimuli\diskette\diskette_10s.jpg	9	-1	1	0	diskette_10s.jpg	0	0.0	0	116.315674036217	116.365663796256	0.0499897600384429	132018
132.118	50	572	0	0	surfboard	1587	263	1	stimuli\surfboard\surfboard_01b.jpg	0	-1	1	0	surfboard_01b.jpg	0	0.0	0	116.415679643862	116.465664771502	0.0499851276399568	132118
132.218	50	573	0	0	phone_booth	1162	264	1	stimuli\phone_booth\phone_booth_04s.jpg	3	-1	1	0	phone_booth_04s.jpg	0	0.0	0	116.515676474315	116.56565453146999	0.0499780571553856	132218
132.318	50	574	0	0	arm	36	265	1	stimuli\arm\arm_05s.jpg	4	-1	1	0	arm_05s.jpg	0	0.0	0	116.61567598674401	116.665661114326	0.0499851275817491	132318
132.418	50	575	0	0	sawhorse	1367	266	1	stimuli\sawhorse\sawhorse_12s.jpg	11	-1	1	0	sawhorse_12s.jpg	0	0.0	0	116.71568037528799	116.76566062669701	0.0499802514095791	132418
132.518	50	576	0	0	ukulele	1742	267	1	stimuli\ukulele\ukulele_05s.jpg	4	-1	1	0	ukulele_05s.jpg	0	0.0	0	116.815681594366	116.86566818482201	0.0499865904566832	132518
132.618	50	577	0	0	bulldozer	215	268	1	stimuli\bulldozer\bulldozer_10s.jpg	9	-1	1	0	bulldozer_10s.jpg	0	0.0	0	116.915686714347	116.965665502881	0.049978788534645	132618
132.718	50	578	0	0	fence	575	269	1	stimuli\fence\fence_04s.jpg	3	-1	1	0	fence_04s.jpg	0	0.0	0	117.01568793342399	117.06567062292	0.0499826894956641	132718
132.818	50	579	0	0	coin	385	270	1	stimuli\coin\coin_12s.jpg	11	-1	1	0	coin_12s.jpg	0	0.0	0	117.11568988388201	117.165675011463	0.0499851275817491	132818
132.918	50	580	0	0	train_set	1700	271	1	stimuli\train_set\train_set_12s.jpg	11	-1	1	0	train_set_12s.jpg	0	0.0	0	117.215696222906	117.265673792455	0.0499775695498101	132918
133.018	50	581	0	0	shirt	1422	272	1	stimuli\shirt\shirt_10s.jpg	9	-1	1	0	shirt_10s.jpg	0	0.0	0	117.31569232197901	117.36567306099501	0.0499807390151545	133018
133.118	50	582	0	0	train_car	1699	273	1	stimuli\train_car\train_car_09s.jpg	8	-1	1	0	train_car_09s.jpg	0	0.0	0	117.415697198187	117.465713045793	0.0500158476061188	133118
133.218	50	583	0	0	lip_balm	934	274	1	stimuli\lip_balm\lip_balm_07s.jpg	6	-1	1	0	lip_balm_07s.jpg	0	0.0	0	117.515712558175	117.56569232197901	0.0499797638040036	133218
133.318	50	584	0	0	chime	328	275	1	stimuli\chime\chime_04s.jpg	3	-1	1	0	chime_04s.jpg	0	0.0	0	117.615719141031	117.665696222917	0.049977081886027	133318
133.418	50	585	0	0	fire	590	276	1	stimuli\fire\fire_02s.jpg	1	-1	1	0	fire_02s.jpg	0	0.0	0	117.71571987244499	117.76569378480801	0.0499739123624749	133418
133.518	50	586	0	0	magnifier	957	277	1	stimuli\magnifier\magnifier_04s.jpg	3	-1	1	0	magnifier_04s.jpg	0	0.0	0	117.815716459125	117.86569792957701	0.0499814704526216	133518
133.618	50	587	0	0	handle	748	278	1	stimuli\handle\handle_07s.jpg	6	-1	1	0	handle_07s.jpg	0	0.0	0	117.91572621150401	117.96570695057699	0.0499807390733622	133618
133.718	50	588	0	0	step_stool	1548	279	1	stimuli\step_stool\step_stool_10s.jpg	9	-1	1	0	step_stool_10s.jpg	0	0.0	0	118.015729381063	118.06570719438601	0.049977813323494	133718
133.818	50	589	0	0	strawberry	1570	280	1	stimuli\strawberry\strawberry_06n.jpg	5	-1	1	0	strawberry_06n.jpg	0	0.0	0	118.115732550563	118.165710120054	0.0499775694916025	133818
133.918	50	590	0	0	gyroscope	731	281	1	stimuli\gyroscope\gyroscope_04s.jpg	3	-1	1	0	gyroscope_04s.jpg	0	0.0	0	118.21573450102	118.26571207056999	0.0499775695498101	133918
134.018	50	591	0	0	eel	545	282	1	stimuli\eel\eel_06s.jpg	5	-1	1	0	eel_06s.jpg	0	0.0	0	118.315729381051	118.36571402102699	0.0499846399761736	134018
134.118	50	592	0	0	machine_gun	954	283	1	stimuli\machine_gun\machine_gun_07s.jpg	6	-1	1	0	machine_gun_07s.jpg	0	0.0	0	118.415738889598	118.465715483879	0.0499765942804515	134118
134.218	50	593	0	0	grape	702	284	1	stimuli\grape\grape_04s.jpg	3	-1	1	0	grape_04s.jpg	0	0.0	0	118.515736207715	118.565714508644	0.0499783009290695	134218
134.318	50	594	0	0	toolbox	1677	285	1	stimuli\toolbox\toolbox_03s.jpg	2	-1	1	0	toolbox_03s.jpg	0	0.0	0	118.61573718296101	118.66572011628901	0.0499829333275557	134318
134.418	50	595	0	0	corkboard	410	286	1	stimuli\corkboard\corkboard_09s.jpg	8	-1	1	0	corkboard_09s.jpg	0	0.0	0	118.715742790548	118.765727430582	0.0499846400343813	134418
134.518	50	596	0	0	ladle	887	287	1	stimuli\ladle\ladle_11s.jpg	10	-1	1	0	ladle_11s.jpg	0	0.0	0	118.815743278188	118.865723529598	0.0499802514095791	134518
134.618	50	597	0	0	jewel	849	288	1	stimuli\jewel\jewel_12s.jpg	11	-1	1	0	jewel_12s.jpg	0	0.0	0	118.915753518173	118.96572889341002	0.049975375237409005	134618
134.718	50	598	0	0	toga	1669	289	1	stimuli\toga\toga_06s.jpg	5	-1	1	0	toga_06s.jpg	0	0.0	0	119.01574522868	119.06573157530501	0.0499863466247916	134718
134.818	50	599	0	0	pancake	1104	290	1	stimuli\pancake\pancake_05s.jpg	4	-1	1	0	pancake_05s.jpg	0	0.0	0	119.115754493454	119.165734257258	0.0499797638040036	134818
134.918	50	600	0	0	bassinet	85	291	1	stimuli\bassinet\bassinet_07s.jpg	6	-1	1	0	bassinet_07s.jpg	0	0.0	0	119.21575693151699	119.265734257235	0.0499773257179186	134918
135.018	50	601	0	0	apron	33	292	1	stimuli\apron\apron_11s.jpg	10	-1	1	1	apron_11s.jpg	0	0.0	0	119.31575620011401	119.365739377216	0.0499831771012396	135018
135.118	50	602	0	0	luggage	948	293	1	stimuli\luggage\luggage_02s.jpg	1	-1	1	0	luggage_02s.jpg	1	0.092217595258262	1	119.41576253913799	119.465740840067	0.0499783009290695	135118
135.219	50	603	0	0	oyster	1092	294	1	stimuli\oyster\oyster_12s.jpg	11	-1	1	0	oyster_12s.jpg	0	0.0	0	119.515784482006	119.565765221079	0.0499807390733622	135219
135.319	50	604	0	0	salami	1349	295	1	stimuli\salami\salami_04s.jpg	3	-1	1	0	salami_04s.jpg	0	0.0	0	119.615771560115	119.665750592481	0.0499790323665366	135319
135.419	50	605	0	0	otter	1085	296	1	stimuli\otter\otter_04n.jpg	3	-1	1	0	otter_04n.jpg	0	0.0	0	119.715777655365	119.765750104852	0.0499724494875409	135419
135.519	50	606	0	0	polisher	1215	297	1	stimuli\polisher\polisher_12s.jpg	11	-1	1	0	polisher_12s.jpg	0	0.0	0	119.815775948693	119.86575888202101	0.0499829333275557	135519
135.619	50	607	0	0	mango	966	298	1	stimuli\mango\mango_01b.jpg	0	-1	1	0	mango_01b.jpg	0	0.0	0	119.91577594866999	119.965760588704	0.0499846400343813	135619
135.719	50	608	0	0	kayak	863	299	1	stimuli\kayak\kayak_09s.jpg	8	-1	1	0	kayak_09s.jpg	0	0.0	0	120.015780093439	120.065763514373	0.0499834209331311	135719
135.819	50	609	0	0	bonnet	163	300	1	stimuli\bonnet\bonnet_05s.jpg	4	-1	1	0	bonnet_05s.jpg	0	0.0	0	120.11578301916599	120.16576473344999	0.0499817142845131	135819
