onset	duration	eventnumber	blocksequencenumber	isteststim	object	objectnumber	presentationnumber	sequencenumber	stim	stimnumber	teststimnumber	withinsequencenumber	istarget	stimname	response	rt	correct	time_stimon	time_stimoff	stimdur	sample
59.967	50	0	0	0	raft	1275	0	0	stimuli\raft\raft_09s.jpg	8	-1	0	0	raft_09s.jpg	0	0.0	0	219.374315871391	219.42427578917702	0.0499599177855998	59967
60.067	50	1	0	0	drumstick	523	1	0	stimuli\drumstick\drumstick_11s.jpg	10	-1	0	0	drumstick_11s.jpg	0	0.0	0	219.474294952583	219.524277788412	0.0499828358297236	60067
60.167	50	2	0	0	spoon	1519	2	0	stimuli\spoon\spoon_02s.jpg	1	-1	0	0	spoon_02s.jpg	0	0.0	0	219.574294757505	219.624275155249	0.0499803977436386	60167
60.267	50	3	0	0	hairbrush	734	3	0	stimuli\hairbrush\hairbrush_11s.jpg	10	-1	0	0	hairbrush_11s.jpg	0	0.0	0	219.67431894340598	219.724285931617	0.0499669882119633	60267
60.367	50	4	0	0	tarp	1628	4	0	stimuli\tarp\tarp_02s.jpg	1	-1	0	0	tarp_02s.jpg	0	0.0	0	219.77430095028802	219.824281835638	0.0499808853492141	60367
60.467	50	5	0	0	sheep	1414	5	0	stimuli\sheep\sheep_01b.jpg	0	-1	0	0	sheep_01b.jpg	0	0.0	0	219.874303437129	219.92494187591402	0.0506384387845173	60467
60.567	50	6	0	0	tuba	1723	6	0	stimuli\tuba\tuba_03s.jpg	2	-1	0	0	tuba_03s.jpg	0	0.0	0	219.974308362056	220.02428388362802	0.0499755215714686	60567
60.667	50	7	0	0	spinach	1515	7	0	stimuli\spinach\spinach_07s.jpg	6	-1	0	0	spinach_07s.jpg	0	0.0	0	220.07430743560002	220.12429222191003	0.0499847863102332	60667
60.767	50	8	0	0	roulette_wheel	1335	8	0	stimuli\roulette_wheel\roulette_wheel_06s.jpg	5	-1	0	0	roulette_wheel_06s.jpg	0	0.0	0	220.17431528627603	220.224294464919	0.0499791786423884	60767
60.867	50	9	0	0	otter	1085	9	0	stimuli\otter\otter_10n.jpg	9	-1	0	0	otter_10n.jpg	0	0.0	0	220.274313140719	220.32429524511102	0.0499821043922566	60867
60.967	50	10	0	0	ball	59	10	0	stimuli\ball\ball_06s.jpg	5	-1	0	0	ball_06s.jpg	0	0.0	0	220.37431343330502	220.424297975784	0.0499845424783416	60967
61.067	50	11	0	0	trumpet	1721	11	0	stimuli\trumpet\trumpet_06s.jpg	5	-1	0	0	trumpet_06s.jpg	0	0.0	0	220.474317626795	220.524305095023	0.0499874682282098	61067
61.167	50	12	0	0	machete	953	12	0	stimuli\machete\machete_07s.jpg	6	-1	0	0	machete_07s.jpg	0	0.0	0	220.574318163213	220.62430099904302	0.0499828358297236	61167
61.267	50	13	0	0	suspenders	1589	13	0	stimuli\suspenders\suspenders_04s.jpg	3	-1	0	0	suspenders_04s.jpg	0	0.0	0	220.674325038621	220.724307143013	0.0499821043922566	61267
61.367	50	14	0	0	doorknocker	510	14	0	stimuli\doorknocker\doorknocker_01b.jpg	0	-1	0	0	doorknocker_01b.jpg	0	0.0	0	220.77431338455102	220.82428988133302	0.0499764967826195	61367
61.467	50	15	0	0	roof_rack	1329	15	0	stimuli\roof_rack\roof_rack_04s.jpg	3	-1	0	0	roof_rack_04s.jpg	0	0.0	0	220.87431294569998	220.92429212439998	0.0499791787005961	61467
61.567	50	16	0	0	beard	106	16	0	stimuli\beard\beard_05s.jpg	4	-1	0	0	beard_05s.jpg	0	0.0	0	220.974345177237	221.02431899216	0.0499738149228506	61567
61.667	50	17	0	0	chick	321	17	0	stimuli\chick\chick_09s.jpg	8	-1	0	0	chick_09s.jpg	0	0.0	0	221.074333523167	221.124312214262	0.0499786910950206	61667
61.767	50	18	0	0	button2	231	18	0	stimuli\button2\button2_06s.jpg	5	-1	0	0	button2_06s.jpg	0	0.0	0	221.17433113383598	221.224305680196	0.0499745463603176	61767
61.867	50	19	0	0	hay	761	19	0	stimuli\hay\hay_06s.jpg	5	-1	0	0	hay_06s.jpg	0	0.0	0	221.27432069880902	221.324306460388	0.0499857615795918	61867
61.967	50	20	0	0	mailbox	960	20	0	stimuli\mailbox\mailbox_12s.jpg	11	-1	0	0	mailbox_12s.jpg	0	0.0	0	221.37432245427001	221.424308215792	0.0499857615213841	61967
62.067	50	21	0	0	walnut	1778	21	0	stimuli\walnut\walnut_10s.jpg	9	-1	0	0	walnut_10s.jpg	0	0.0	0	221.474326891592	221.52429826837002	0.0499713767785579	62067
62.167	50	22	0	0	donkey	504	22	0	stimuli\donkey\donkey_06s.jpg	5	-1	0	0	donkey_06s.jpg	0	0.0	0	221.574320113694	221.624297829519	0.049977715825661996	62167
62.267	50	23	0	0	hinge	779	23	0	stimuli\hinge\hinge_02s.jpg	1	-1	0	0	hinge_02s.jpg	0	0.0	0	221.674327232875	221.724306167802	0.0499789349269122	62267
62.367	50	24	0	0	paper_bag	1113	24	0	stimuli\paper_bag\paper_bag_06s.jpg	5	-1	0	0	paper_bag_06s.jpg	0	0.0	0	221.774338740681	221.82431572512698	0.0499769844464026	62367
62.467	50	25	0	0	bubble_wrap	208	25	0	stimuli\bubble_wrap\bubble_wrap_10s.jpg	9	-1	0	0	bubble_wrap_10s.jpg	0	0.0	0	221.874338058056	221.92432065005403	0.0499825919978321	62467
62.567	50	26	0	0	pillbox	1175	26	0	stimuli\pillbox\pillbox_12s.jpg	11	-1	0	0	pillbox_12s.jpg	0	0.0	0	221.974347127718	222.02431362832402	0.0499665006063879	62567
62.667	50	27	0	0	wreath	1839	27	0	stimuli\wreath\wreath_03s.jpg	2	-1	0	0	wreath_03s.jpg	0	0.0	0	222.07436814409402	222.124331475177	0.0499633310828358	62667
62.767	50	28	0	0	antelope	26	28	0	stimuli\antelope\antelope_01b.jpg	0	-1	0	0	antelope_01b.jpg	0	0.0	0	222.17437014332995	222.22433493728698	0.0499647939577699	62767
62.867	50	29	0	0	sorbet	1497	29	0	stimuli\sorbet\sorbet_01b.jpg	0	-1	0	0	sorbet_01b.jpg	0	0.0	0	222.274362390162	222.32435107743402	0.0499886872712523	62867
62.967	50	30	0	0	cross	443	30	0	stimuli\cross\cross_05s.jpg	4	-1	0	0	cross_05s.jpg	0	0.0	0	222.374374385574	222.424354783318	0.0499803977436386	62967
63.067	50	31	0	0	jack	835	31	0	stimuli\jack\jack_07s.jpg	6	-1	0	0	jack_07s.jpg	0	0.0	0	222.474376872473	222.524340203556	0.0499633310828358	63067
63.167	50	32	0	0	fast_food	572	32	0	stimuli\fast_food\fast_food_09s.jpg	8	-1	0	0	fast_food_09s.jpg	0	0.0	0	222.57437692122798	222.62435902562	0.0499821043922566	63167
63.267	50	33	0	0	cockatoo	372	33	0	stimuli\cockatoo\cockatoo_04s.jpg	3	-1	0	0	cockatoo_04s.jpg	0	0.0	0	222.67438062711201	222.724365657254	0.0499850301421247	63267
63.367	50	34	0	0	wallet	1776	34	0	stimuli\wallet\wallet_05s.jpg	4	-1	0	0	wallet_05s.jpg	0	0.0	0	222.774385308265	222.824368875532	0.0499835672671907	63367
63.467	50	35	0	0	straw1	1568	35	0	stimuli\straw1\straw1_11s.jpg	10	-1	0	0	straw1_11s.jpg	0	0.0	0	222.874368534191	222.92436770524398	0.0499991710530594	63467
63.567	50	36	0	0	horn	797	36	0	stimuli\horn\horn_10s.jpg	9	-1	0	0	horn_10s.jpg	0	0.0	0	222.974388087692	223.02435190638099	0.0499638186884113	63567
63.667	50	37	0	0	chihuahua	326	37	0	stimuli\chihuahua\chihuahua_09s.jpg	8	-1	0	0	chihuahua_09s.jpg	0	0.0	0	223.074371069786	223.124348541838	0.0499774720519781	63667
63.767	50	38	0	0	stomach	1560	38	0	stimuli\stomach\stomach_10s.jpg	9	-1	0	0	stomach_10s.jpg	0	0.0	0	223.17439598712397	223.224374678161	0.049978691036812996	63767
63.867	50	39	0	0	teabag	1632	39	0	stimuli\teabag\teabag_08s.jpg	7	-1	0	0	teabag_08s.jpg	0	0.0	0	223.274396035878	223.32437789643902	0.049981860560364993	63867
63.967	50	40	0	0	blowgun	147	40	0	stimuli\blowgun\blowgun_07s.jpg	6	-1	0	0	blowgun_07s.jpg	0	0.0	0	223.37440217984798	223.424378189025	0.049976009177044006	63967
64.067	50	41	0	0	cat	284	41	0	stimuli\cat\cat_11s.jpg	10	-1	0	0	cat_11s.jpg	0	0.0	0	223.474398571474	223.524363853037	0.0499652815633453	64067
64.167	50	42	0	0	rabbit	1265	42	0	stimuli\rabbit\rabbit_12n.jpg	11	-1	0	0	rabbit_12n.jpg	0	0.0	0	223.57440398406501	223.624382675102	0.049978691036812996	64167
64.267	50	43	0	0	quilt	1264	43	0	stimuli\quilt\quilt_04s.jpg	3	-1	0	1	quilt_04s.jpg	0	0.0	0	223.674405495636	223.72438443056302	0.0499789349269122	64267
64.367	50	44	0	0	leg	911	44	0	stimuli\leg\leg_09s.jpg	8	-1	0	0	leg_09s.jpg	0	0.0	0	223.774407007266	223.82437204505501	0.0499650377896614	64367
64.467	50	45	0	0	canister	259	45	0	stimuli\canister\canister_07s.jpg	6	-1	0	0	canister_07s.jpg	0	0.0	0	223.874410225544	223.924373800459	0.0499635749147274	64467
64.567	50	46	0	0	caramel	270	46	0	stimuli\caramel\caramel_11s.jpg	10	-1	0	0	caramel_11s.jpg	0	0.0	0	223.974413931428	224.02439359779203	0.0499796663643792	64567
64.667	50	47	0	0	acorn	3	47	0	stimuli\acorn\acorn_10s.jpg	9	-1	0	0	acorn_10s.jpg	0	0.0	0	224.07442031922997	224.12439364654702	0.0499733273172751	64667
64.767	50	48	0	0	washing_machine	1784	48	0	stimuli\washing_machine\washing_machine_12s.jpg	11	-1	0	0	washing_machine_12s.jpg	0	0.0	0	224.17442183086	224.22440222860297	0.0499803977436386	64767
64.867	50	49	0	0	airplane	10	49	0	stimuli\airplane\airplane_05n.jpg	4	-1	0	0	airplane_05n.jpg	0	0.0	0	224.274428218661	224.324402764963	0.049974546302110005	64867
64.967	50	50	0	0	crab	428	50	0	stimuli\crab\crab_12s.jpg	11	-1	0	0	crab_12s.jpg	0	0.0	0	224.374425585556	224.42440647090598	0.0499808853492141	64967
65.067	50	51	0	0	sunflower	1584	51	0	stimuli\sunflower\sunflower_08s.jpg	7	-1	0	0	sunflower_08s.jpg	0	0.0	0	224.47441734478298	224.524399936781	0.0499825919978321	65067
65.167	50	52	0	0	crib	441	52	0	stimuli\crib\crib_03s.jpg	2	-1	0	0	crib_03s.jpg	0	0.0	0	224.57442031922997	224.62439827888699	0.0499779596575536	65167
65.267	50	53	0	0	chopsticks	339	53	0	stimuli\chopsticks\chopsticks_05s.jpg	4	-1	0	0	chopsticks_05s.jpg	0	0.0	0	224.67442378133998	224.724400521955	0.0499767406145111	65267
65.367	50	54	0	0	watch	1786	54	0	stimuli\watch\watch_06s.jpg	5	-1	0	0	watch_06s.jpg	0	0.0	0	224.774426024407	224.824407397362	0.0499813729547895	65367
65.467	50	55	0	0	christmas_card	340	55	0	stimuli\christmas_card\christmas_card_01b.jpg	0	-1	0	0	christmas_card_01b.jpg	0	0.0	0	224.87443143694	224.92441159090998	0.0499801539699547	65467
65.567	50	56	0	0	fire_hydrant	592	56	0	stimuli\fire_hydrant\fire_hydrant_08s.jpg	7	-1	0	0	fire_hydrant_08s.jpg	0	0.0	0	224.974423683831	225.024414321524	0.0499906376935542	65567
65.667	50	57	0	0	french_horn	642	57	0	stimuli\french_horn\french_horn_01s.jpg	0	-1	0	0	french_horn_01s.jpg	0	0.0	0	225.074418124976	225.124399254157	0.0499811291811056	65667
65.767	50	58	0	0	cord	407	58	0	stimuli\cord\cord_02s.jpg	1	-1	0	0	cord_02s.jpg	0	0.0	0	225.17443962895803	225.224432948569	0.0499933196115308	65767
65.867	50	59	0	0	pancake	1104	59	0	stimuli\pancake\pancake_12s.jpg	11	-1	0	0	pancake_12s.jpg	0	0.0	0	225.274424561532	225.324420075456	0.0499955139239319	65867
65.967	50	60	0	0	screen1	1388	60	0	stimuli\screen1\screen1_04s.jpg	3	-1	0	0	screen1_04s.jpg	0	0.0	0	225.374447040725	225.424426707032	0.0499796663061716	65967
66.067	50	61	0	0	rake	1281	61	0	stimuli\rake\rake_01b.jpg	0	-1	0	0	rake_01b.jpg	0	0.0	0	225.474430022878	225.524412858707	0.0499828358297236	66067
66.167	50	62	0	0	costume	419	62	0	stimuli\costume\costume_05s.jpg	4	-1	0	0	costume_05s.jpg	0	0.0	0	225.574448113504	225.624411444587	0.0499633310828358	66167
66.267	50	63	0	0	windshield	1820	63	0	stimuli\windshield\windshield_08s.jpg	7	-1	0	0	windshield_08s.jpg	0	0.0	0	225.67445084417702	225.724430754315	0.0499799101380631	66267
66.367	50	64	0	0	yogurt	1848	64	0	stimuli\yogurt\yogurt_03s.jpg	2	-1	0	0	yogurt_03s.jpg	0	0.0	0	225.774451380537	225.824416905933	0.0499655253952369	66367
66.467	50	65	0	0	cooler	403	65	0	stimuli\cooler\cooler_10s.jpg	9	-1	0	0	cooler_10s.jpg	0	0.0	0	225.874457280734	225.92443865368801	0.0499813729547895	66467
66.567	50	66	0	0	hoe	784	66	0	stimuli\hoe\hoe_12s.jpg	11	-1	0	0	hoe_12s.jpg	0	0.0	0	225.97445757332	226.024437971064	0.0499803977436386	66567
66.667	50	67	0	0	flashlight	611	67	0	stimuli\flashlight\flashlight_06s.jpg	5	-1	0	0	flashlight_06s.jpg	0	0.0	0	226.07444518781298	226.124443139823	0.0499979520100169	66667
66.767	50	68	0	0	awning	44	68	0	stimuli\awning\awning_03s.jpg	2	-1	0	0	awning_03s.jpg	0	0.0	0	226.174449137528	226.224444895226	0.0499957576976158	66767
66.867	50	69	0	0	ham	739	69	0	stimuli\ham\ham_10s.jpg	9	-1	0	0	ham_10s.jpg	0	0.0	0	226.27445552532998	226.324448113504	0.0499925881740637	66867
66.967	50	70	0	0	jewel	849	70	0	stimuli\jewel\jewel_05s.jpg	4	-1	0	0	jewel_05s.jpg	0	0.0	0	226.37446898355802	226.424454257474	0.0499852739158086	66967
67.067	50	71	0	0	wedding_cake	1800	71	0	stimuli\wedding_cake\wedding_cake_03s.jpg	2	-1	0	0	wedding_cake_03s.jpg	0	0.0	0	226.47447073902	226.52445893862802	0.0499881996074691	67067
67.167	50	72	0	0	chain	298	72	0	stimuli\chain\chain_11s.jpg	10	-1	0	0	chain_11s.jpg	0	0.0	0	226.57447322586103	226.624452648335	0.04997942247428	67167
67.267	50	73	0	0	earring	540	73	0	stimuli\earring\earring_02s.jpg	1	-1	0	0	earring_02s.jpg	0	0.0	0	226.674474737491	226.724457085656	0.0499823481659405	67267
67.367	50	74	0	0	biscuit	133	74	0	stimuli\biscuit\biscuit_02s.jpg	1	-1	0	1	biscuit_02s.jpg	0	0.0	0	226.774476980499	226.824443237332	0.0499662568327039	67367
67.467	50	75	0	0	globe	679	75	0	stimuli\globe\globe_05s.jpg	4	-1	0	0	globe_05s.jpg	0	0.0	0	226.874473372125	226.924466691737	0.0499933196115308	67467
67.567	50	76	0	0	floss	617	76	0	stimuli\floss\floss_01b.jpg	0	-1	0	0	floss_01b.jpg	0	0.0	0	226.97448463609902	227.02447088528402	0.0499862491851673	67567
67.667	50	77	0	0	tongs	1674	77	0	stimuli\tongs\tongs_04s.jpg	3	-1	0	0	tongs_04s.jpg	0	0.0	0	227.07446810585702	227.12445508642102	0.0499869805644266	67667
67.767	50	78	0	0	potpourri	1235	78	0	stimuli\potpourri\potpourri_07s.jpg	6	-1	0	0	potpourri_07s.jpg	0	0.0	0	227.174491072656	227.224469763751	0.0499786910950206	67767
67.867	50	79	0	0	playpen	1200	79	0	stimuli\playpen\playpen_10s.jpg	9	-1	0	0	playpen_10s.jpg	0	0.0	0	227.27448990242598	227.324453233508	0.0499633310828358	67867
67.967	50	80	0	0	air_pump	6	80	0	stimuli\air_pump\air_pump_01s.jpg	0	-1	0	0	air_pump_01s.jpg	0	0.0	0	227.374496046396	227.424473518447	0.0499774720519781	67967
68.067	50	81	0	0	pony	1220	81	0	stimuli\pony\pony_12s.jpg	11	-1	0	0	pony_12s.jpg	0	0.0	0	227.474496826588	227.524475273851	0.0499784472631291	68067
68.167	50	82	0	0	watermelon	1793	82	0	stimuli\watermelon\watermelon_12s.jpg	11	-1	0	0	watermelon_12s.jpg	0	0.0	0	227.574481271557	227.624486781657	0.0500055101001635	68167
68.267	50	83	0	0	skateboard	1449	83	0	stimuli\skateboard\skateboard_08s.jpg	7	-1	0	0	skateboard_08s.jpg	0	0.0	0	227.674500337453	227.72446464374698	0.0499643062939867	68267
68.367	50	84	0	0	gong	692	84	0	stimuli\gong\gong_11s.jpg	10	-1	0	0	gong_11s.jpg	0	0.0	0	227.77450404333598	227.824488342041	0.0499842987046577	68367
68.467	50	85	0	0	blackberry	135	85	0	stimuli\blackberry\blackberry_03s.jpg	2	-1	0	0	blackberry_03s.jpg	0	0.0	0	227.874504579697	227.924469373655	0.0499647939577699	68467
68.567	50	86	0	0	fork	634	86	0	stimuli\fork\fork_05s.jpg	4	-1	0	0	fork_05s.jpg	0	0.0	0	227.974494388502	228.024471129116	0.0499767406145111	68567
68.667	50	87	0	0	gun	727	87	0	stimuli\gun\gun_07n.jpg	6	-1	0	0	gun_07n.jpg	0	0.0	0	228.074509309605	228.12448239308998	0.0499730834853835	68667
68.767	50	88	0	0	tool	1676	88	0	stimuli\tool\tool_09s.jpg	8	-1	0	0	tool_09s.jpg	0	0.0	0	228.174515697407	228.224492194189	0.0499764967826195	68767
68.867	50	89	0	0	fondue	626	89	0	stimuli\fondue\fondue_07s.jpg	6	-1	0	0	fondue_07s.jpg	0	0.0	0	228.274500142375	228.324496875342	0.0499967329669744	68867
68.967	50	90	0	0	matchbox	984	90	0	stimuli\matchbox\matchbox_12s.jpg	11	-1	0	0	matchbox_12s.jpg	0	0.0	0	228.37450019112998	228.424500093621	0.0499999024905264	68967
69.067	50	91	0	0	shoelace	1426	91	0	stimuli\shoelace\shoelace_10s.jpg	9	-1	0	0	shoelace_10s.jpg	0	0.0	0	228.474518281815	228.524487951945	0.0499696701299399	69067
69.167	50	92	0	0	fruitcake	646	92	0	stimuli\fruitcake\fruitcake_05s.jpg	4	-1	0	0	fruitcake_05s.jpg	0	0.0	0	228.57452418195302	228.62448775686798	0.0499635749147274	69167
69.267	50	93	0	0	coffee_bean	378	93	0	stimuli\coffee_bean\coffee_bean_07s.jpg	6	-1	0	0	coffee_bean_07s.jpg	0	0.0	0	228.674526912626	228.72453047224602	0.050003559619654005	69267
69.367	50	94	0	0	mattress	985	94	0	stimuli\mattress\mattress_08s.jpg	7	-1	0	0	mattress_08s.jpg	0	0.0	0	228.77453403186502	228.824512966734	0.0499789348687045	69367
69.467	50	95	0	0	manhole	967	95	0	stimuli\manhole\manhole_05n.jpg	4	-1	0	0	manhole_05n.jpg	0	0.0	0	228.87452091492	228.924517404055	0.0499964891350828	69467
69.567	50	96	0	0	sifter	1443	96	0	stimuli\sifter\sifter_05s.jpg	4	-1	0	0	sifter_05s.jpg	0	0.0	0	228.974540712254	229.02451915951698	0.0499784472631291	69567
69.667	50	97	0	0	closet	360	97	0	stimuli\closet\closet_03s.jpg	2	-1	0	0	closet_03s.jpg	0	0.0	0	229.07454027340302	229.124506774009	0.0499665006063879	69667
69.767	50	98	0	0	bell	116	98	0	stimuli\bell\bell_08s.jpg	7	-1	0	0	bell_08s.jpg	0	0.0	0	229.174544466892	229.224523157987	0.0499786910950206	69767
69.867	50	99	0	0	dryer	524	99	0	stimuli\dryer\dryer_04s.jpg	3	-1	0	0	dryer_04s.jpg	0	0.0	0	229.274529399467	229.324525400996	0.0499960015295073	69867
69.967	50	100	0	0	baby	46	100	0	stimuli\baby\baby_11s.jpg	10	-1	0	0	baby_11s.jpg	0	0.0	0	229.374550172011	229.42452861927399	0.0499784472631291	69967
70.067	50	101	0	0	stamp1	1535	101	0	stimuli\stamp1\stamp1_04s.jpg	3	-1	0	0	stamp1_04s.jpg	0	0.0	0	229.474549733161	229.524514039513	0.0499643063521944	70067
70.167	50	102	0	0	hail	732	102	0	stimuli\hail\hail_02s.jpg	1	-1	0	0	hail_02s.jpg	0	0.0	0	229.574537103879	229.6245360311	0.0499989272211678	70167
70.267	50	103	0	0	turban	1730	103	0	stimuli\turban\turban_04s.jpg	3	-1	0	0	turban_04s.jpg	0	0.0	0	229.67456275259602	229.724528277991	0.0499655253952369	70267
70.367	50	104	0	0	incubator	827	104	0	stimuli\incubator\incubator_10s.jpg	9	-1	0	0	incubator_10s.jpg	0	0.0	0	229.77454134612302	229.82452247530497	0.0499811291811056	70367
70.467	50	105	0	0	armor	37	105	0	stimuli\armor\armor_12s.jpg	11	-1	0	0	armor_12s.jpg	0	0.0	0	229.87456163106302	229.924530813587	0.0499691825243644	70467
70.567	50	106	0	0	pastry	1124	106	0	stimuli\pastry\pastry_12s.jpg	11	-1	0	0	pastry_12s.jpg	0	0.0	0	229.974548514117	230.02452647377498	0.0499779596575536	70567
70.667	50	107	0	0	taco	1613	107	0	stimuli\taco\taco_07s.jpg	6	-1	0	0	taco_07s.jpg	0	0.0	0	230.07456465432202	230.124548221531	0.049983567208983004	70667
70.767	50	108	0	0	jukebox	857	108	0	stimuli\jukebox\jukebox_06s.jpg	5	-1	0	0	jukebox_06s.jpg	0	0.0	0	230.17456982308101	230.224546319863	0.0499764967826195	70767
70.867	50	109	0	0	handlebar	749	109	0	stimuli\handlebar\handlebar_11s.jpg	10	-1	0	0	handlebar_11s.jpg	0	0.0	0	230.274569140398	230.324548562872	0.04997942247428	70867
70.967	50	110	0	0	hearing_aid	770	110	0	stimuli\hearing_aid\hearing_aid_09s.jpg	8	-1	0	0	hearing_aid_09s.jpg	0	0.0	0	230.374576503411	230.424554463068	0.0499779596575536	70967
71.067	50	111	0	0	ping-pong_table	1184	111	0	stimuli\ping-pong_table\ping-pong_table_05s.jpg	4	-1	0	0	ping-pong_table_05s.jpg	0	0.0	0	230.47457606456	230.524556218472	0.049980153911747004	71067
71.167	50	112	0	0	trunk	1722	112	0	stimuli\trunk\trunk_03s.jpg	2	-1	0	0	trunk_03s.jpg	0	0.0	0	230.574563435279	230.62456065585098	0.0499972205725498	71167
71.267	50	113	0	0	amber	18	113	0	stimuli\amber\amber_08s.jpg	7	-1	0	0	amber_08s.jpg	0	0.0	0	230.67458176967898	230.724547538906	0.0499657692271285	71267
71.367	50	114	0	0	lightbulb	927	114	0	stimuli\lightbulb\lightbulb_07s.jpg	6	-1	0	0	lightbulb_07s.jpg	0	0.0	0	230.774584012746	230.82455026957902	0.0499662568327039	71367
71.467	50	115	0	0	baton4	95	115	0	stimuli\baton4\baton4_09s.jpg	8	-1	0	1	baton4_09s.jpg	0	0.0	0	230.874584792939	230.92456982308101	0.0499850301421247	71467
71.567	50	116	0	0	waffle	1770	116	0	stimuli\waffle\waffle_08s.jpg	7	-1	0	0	waffle_08s.jpg	0	0.0	0	230.97458776738497	231.024552073737	0.0499643063521944	71567
71.667	50	117	0	0	coat_rack	370	117	0	stimuli\coat_rack\coat_rack_04s.jpg	3	-1	0	0	coat_rack_04s.jpg	0	0.0	0	231.07458976662002	231.12455992441397	0.049970157793723	71667
71.767	50	118	0	0	railing	1277	118	0	stimuli\railing\railing_06s.jpg	5	-1	0	0	railing_06s.jpg	0	0.0	0	231.174593960168	231.22457606456	0.0499821043922566	71767
71.867	50	119	0	0	cookie_sheet	402	119	0	stimuli\cookie_sheet\cookie_sheet_12s.jpg	11	-1	0	0	cookie_sheet_12s.jpg	0	0.0	0	231.274583525141	231.32456441048998	0.0499808853492141	71867
71.967	50	120	0	0	calzone	243	120	0	stimuli\calzone\calzone_10s.jpg	9	-1	0	0	calzone_10s.jpg	0	0.0	0	231.374583817727	231.424582013511	0.0499981957837008	71967
72.067	50	121	0	0	stem	1547	121	0	stimuli\stem\stem_10s.jpg	9	-1	0	0	stem_10s.jpg	0	0.0	0	231.47460263979198	231.524562801351	0.0499601615592837	72067
72.167	50	122	0	0	domino	503	122	0	stimuli\domino\domino_10s.jpg	9	-1	0	0	domino_10s.jpg	0	0.0	0	231.57460293232003	231.624584792939	0.0499818606185727	72167
72.267	50	123	0	0	tooth	1678	123	0	stimuli\tooth\tooth_04s.jpg	3	-1	0	0	tooth_04s.jpg	0	0.0	0	231.67461322108298	231.72457533312303	0.0499621120397933	72267
72.367	50	124	0	0	loom	946	124	0	stimuli\loom\loom_02s.jpg	1	-1	0	0	loom_02s.jpg	0	0.0	0	231.774591083231	231.824572456186	0.0499813729547895	72367
72.467	50	125	0	0	grass	705	125	0	stimuli\grass\grass_12s.jpg	11	-1	0	0	grass_12s.jpg	0	0.0	0	231.874612587213	231.924578843988	0.0499662567744963	72467
72.567	50	126	0	0	nail_polish	1049	126	0	stimuli\nail_polish\nail_polish_02s.jpg	1	-1	0	0	nail_polish_02s.jpg	0	0.0	0	231.974597032182	232.02459278988	0.0499957576976158	72567
72.667	50	127	0	0	gumdrop	726	127	0	stimuli\gumdrop\gumdrop_06s.jpg	5	-1	0	0	gumdrop_06s.jpg	0	0.0	0	232.074616341852	232.12460015289298	0.0499838110408746	72667
72.767	50	128	0	0	okra	1074	128	0	stimuli\okra\okra_06s.jpg	5	-1	0	0	okra_06s.jpg	0	0.0	0	232.174618341087	232.224584841693	0.0499665006063879	72767
72.867	50	129	0	0	dough	513	129	0	stimuli\dough\dough_04s.jpg	3	-1	0	0	dough_04s.jpg	0	0.0	0	232.27462009648997	232.32459951902302	0.0499794225324877	72867
72.967	50	130	0	0	sushi	1588	130	0	stimuli\sushi\sushi_01b.jpg	0	-1	0	0	sushi_01b.jpg	0	0.0	0	232.37462282716302	232.42460444395002	0.0499816167866811	72967
73.067	50	131	0	0	loveseat	947	131	0	stimuli\loveseat\loveseat_01b.jpg	0	-1	0	0	loveseat_01b.jpg	0	0.0	0	232.47462604544103	232.52460571174703	0.0499796663061716	73067
73.167	50	132	0	0	bungee	221	132	0	stimuli\bungee\bungee_01b.jpg	0	-1	0	0	bungee_01b.jpg	0	0.0	0	232.57462658186	232.62460893002603	0.0499823481659405	73167
73.267	50	133	0	0	pocketknife	1207	133	0	stimuli\pocketknife\pocketknife_03s.jpg	2	-1	0	0	pocketknife_03s.jpg	0	0.0	0	232.674630043912	232.724611173093	0.0499811291811056	73267
73.367	50	134	0	0	stair	1532	134	0	stimuli\stair\stair_02s.jpg	1	-1	0	0	stair_02s.jpg	0	0.0	0	232.77463350602198	232.824619267543	0.0499857615213841	73367
73.467	50	135	0	0	swing_set	1599	135	0	stimuli\swing_set\swing_set_10s.jpg	9	-1	0	0	swing_set_10s.jpg	0	0.0	0	232.874639649992	232.92461687821202	0.0499772282200865	73467
73.567	50	136	0	0	whoopee_cushion	1814	136	0	stimuli\whoopee_cushion\whoopee_cushion_03s.jpg	2	-1	0	0	whoopee_cushion_03s.jpg	0	0.0	0	232.97464530635602	233.02460229845002	0.0499569920939393	73567
73.667	50	137	0	0	hard_disk	752	137	0	stimuli\hard_disk\hard_disk_03s.jpg	2	-1	0	0	hard_disk_03s.jpg	0	0.0	0	233.074623168504	233.124620632909	0.0499974644044414	73667
73.767	50	138	0	0	flag	605	138	0	stimuli\flag\flag_08s.jpg	7	-1	0	0	flag_08s.jpg	0	0.0	0	233.17464589153	233.224625314004	0.04997942247428	73767
73.867	50	139	0	0	barnacle	75	139	0	stimuli\barnacle\barnacle_09s.jpg	8	-1	0	0	barnacle_09s.jpg	0	0.0	0	233.274634481233	233.324609027593	0.0499745463603176	73867
73.967	50	140	0	0	ladder	886	140	0	stimuli\ladder\ladder_03s.jpg	2	-1	0	0	ladder_03s.jpg	0	0.0	0	233.37463696813202	233.42463028774398	0.0499933196115308	73967
74.067	50	141	0	0	brace	186	141	0	stimuli\brace\brace_09s.jpg	8	-1	0	0	brace_09s.jpg	0	0.0	0	233.474660178763	233.524616439361	0.0499562605982646	74067
74.167	50	142	0	0	cow	426	142	0	stimuli\cow\cow_12s.jpg	11	-1	0	0	cow_12s.jpg	0	0.0	0	233.57464047893902	233.624635749089	0.049995270150247996	74167
74.267	50	143	0	0	graffiti	697	143	0	stimuli\graffiti\graffiti_07s.jpg	6	-1	0	0	graffiti_07s.jpg	0	0.0	0	233.67464125913102	233.724636773055	0.0499955139239319	74267
74.367	50	144	0	0	napkin	1050	144	0	stimuli\napkin\napkin_07s.jpg	6	-1	0	0	napkin_07s.jpg	0	0.0	0	233.77465837454702	233.824622193293	0.0499638187466189	74367
74.467	50	145	0	0	pulley	1250	145	0	stimuli\pulley\pulley_04s.jpg	3	-1	0	0	pulley_04s.jpg	0	0.0	0	233.87466500617995	233.92462589917702	0.0499608929967508	74467
74.567	50	146	0	0	hammock	742	146	0	stimuli\hammock\hammock_09s.jpg	8	-1	0	0	hammock_09s.jpg	0	0.0	0	233.974665786372	234.024628142186	0.0499623558134772	74567
74.667	50	147	0	0	chalkboard	303	147	0	stimuli\chalkboard\chalkboard_06s.jpg	5	-1	0	0	chalkboard_06s.jpg	0	0.0	0	234.074667297944	234.124650377606	0.0499830796616152	74667
74.767	50	148	0	0	gourd	696	148	0	stimuli\gourd\gourd_06s.jpg	5	-1	0	1	gourd_06s.jpg	0	0.0	0	234.174670028617	234.224632140656	0.0499621120397933	74767
74.867	50	149	0	0	eye	564	149	0	stimuli\eye\eye_10s.jpg	9	-1	0	0	eye_10s.jpg	0	0.0	0	234.27467397833198	234.324635846599	0.0499618682661094	74867
74.967	50	150	0	0	shrimp	1438	150	0	stimuli\shrimp\shrimp_01b.jpg	0	-1	0	0	shrimp_01b.jpg	1	0.252137962845154	1	234.374672808044	234.42465564387402	0.0499828358297236	74967
75.067	50	151	0	0	paperclip	1116	151	0	stimuli\paperclip\paperclip_06s.jpg	5	-1	0	0	paperclip_06s.jpg	0	0.0	0	234.474675051111	234.52465471741698	0.0499796663061716	75067
75.167	50	152	0	0	bracelet2	188	152	0	stimuli\bracelet2\bracelet2_07s.jpg	6	-1	0	0	bracelet2_07s.jpg	0	0.0	0	234.57467680651501	234.624658667133	0.0499818606185727	75167
75.267	50	153	0	0	frame	639	153	0	stimuli\frame\frame_08s.jpg	7	-1	0	0	frame_08s.jpg	0	0.0	0	234.67468002479302	234.724661885411	0.0499818606185727	75267
75.367	50	154	0	0	sequin	1404	154	0	stimuli\sequin\sequin_10s.jpg	9	-1	0	0	sequin_10s.jpg	0	0.0	0	234.77466715168	234.82466412847901	0.0499969767988659	75367
75.467	50	155	0	0	fungus	648	155	0	stimuli\fungus\fungus_02s.jpg	1	-1	0	0	fungus_02s.jpg	0	0.0	0	234.874688655662	234.924668078136	0.04997942247428	75467
75.567	50	156	0	0	food_processor	627	156	0	stimuli\food_processor\food_processor_12s.jpg	11	-1	0	0	food_processor_12s.jpg	0	0.0	0	234.97468919202203	235.02467007737098	0.0499808853492141	75567
75.667	50	157	0	0	clothespin	363	157	0	stimuli\clothespin\clothespin_03s.jpg	2	-1	0	0	clothespin_03s.jpg	0	0.0	0	235.07469241029997	235.12467256427	0.0499801539699547	75667
75.767	50	158	0	0	teddy_bear	1635	158	0	stimuli\teddy_bear\teddy_bear_09s.jpg	8	-1	0	0	teddy_bear_09s.jpg	0	0.0	0	235.174694165762	235.22465798445	0.0499638186884113	75767
75.867	50	159	0	0	bomb	160	159	0	stimuli\bomb\bomb_01b.jpg	0	-1	0	0	bomb_01b.jpg	0	0.0	0	235.274696408771	235.324682170351	0.0499857615795918	75867
75.967	50	160	0	0	ramp	1283	160	0	stimuli\ramp\ramp_01b.jpg	0	-1	0	0	ramp_01b.jpg	0	0.0	0	235.374704259448	235.42467880575	0.049974546302110005	75967
76.067	50	161	0	0	champagne	304	161	0	stimuli\champagne\champagne_11s.jpg	10	-1	0	0	champagne_11s.jpg	0	0.0	0	235.47468553489298	235.524668370723	0.0499828358297236	76067
76.167	50	162	0	0	snail	1476	162	0	stimuli\snail\snail_12s.jpg	11	-1	0	0	snail_12s.jpg	0	0.0	0	235.57468777796	235.624690606142	0.0500028281821869	76167
76.267	50	163	0	0	shawl	1411	163	0	stimuli\shawl\shawl_03s.jpg	2	-1	0	0	shawl_03s.jpg	0	0.0	0	235.67470928194197	235.72468602249901	0.0499767405563034	76267
76.367	50	164	0	0	footrest	633	164	0	stimuli\footrest\footrest_08s.jpg	7	-1	0	0	footrest_08s.jpg	0	0.0	0	235.774708355428	235.824671930342	0.0499635749147274	76367
76.467	50	165	0	0	meatloaf	990	165	0	stimuli\meatloaf\meatloaf_10s.jpg	9	-1	0	0	meatloaf_10s.jpg	0	0.0	0	235.87471206131198	235.924696847622	0.0499847863102332	76467
76.567	50	166	0	0	chin	330	166	0	stimuli\chin\chin_04s.jpg	3	-1	0	0	chin_04s.jpg	0	0.0	0	235.97471332916803	236.024692751642	0.04997942247428	76567
76.667	50	167	0	0	smoothie	1474	167	0	stimuli\smoothie\smoothie_03s.jpg	2	-1	0	0	smoothie_03s.jpg	0	0.0	0	236.07471654744597	236.124695482315	0.0499789348687045	76667
76.767	50	168	0	0	beachball	99	168	0	stimuli\beachball\beachball_01b.jpg	0	-1	0	0	beachball_01b.jpg	0	0.0	0	236.174705868587	236.22468919202203	0.0499833234352991	76767
76.867	50	169	0	0	book	165	169	0	stimuli\book\book_05s.jpg	4	-1	0	0	book_05s.jpg	0	0.0	0	236.274722984002	236.324684120831	0.0499611368286423	76867
76.967	50	170	0	0	pot	1230	170	0	stimuli\pot\pot_12s.jpg	11	-1	0	0	pot_12s.jpg	0	0.0	0	236.37472376419498	236.42470221145803	0.0499784472631291	76967
77.067	50	171	0	0	oyster	1092	171	0	stimuli\oyster\oyster_02n.jpg	1	-1	0	0	oyster_02n.jpg	0	0.0	0	236.47470845293702	236.524705917342	0.0499974644044414	77067
77.167	50	172	0	0	insole	831	172	0	stimuli\insole\insole_03s.jpg	2	-1	0	0	insole_03s.jpg	0	0.0	0	236.57472703122798	236.62471206131198	0.0499850300839171	77167
77.267	50	173	0	0	banana_split	65	173	0	stimuli\banana_split\banana_split_01b.jpg	0	-1	0	0	banana_split_01b.jpg	0	0.0	0	236.67473049333802	236.724694799632	0.0499643062939867	77267
77.367	50	174	0	0	dice	486	174	0	stimuli\dice\dice_01s.jpg	0	-1	0	0	dice_01s.jpg	0	0.0	0	236.77471762016603	236.824700212223	0.0499825920560397	77367
77.467	50	175	0	0	splinter	1516	175	0	stimuli\splinter\splinter_01b.jpg	0	-1	0	0	splinter_01b.jpg	0	0.0	0	236.874737905106	236.924701967626	0.0499640625203028	77467
77.567	50	176	0	0	polo_shirt	1216	176	0	stimuli\polo_shirt\polo_shirt_02s.jpg	1	-1	0	0	polo_shirt_02s.jpg	0	0.0	0	236.974740635778	237.024717863998	0.0499772282200865	77567
77.667	50	177	0	0	grapevine	704	177	0	stimuli\grapevine\grapevine_04s.jpg	3	-1	0	0	grapevine_04s.jpg	0	0.0	0	237.07474312261903	237.12472766515597	0.0499845425365493	77667
77.767	50	178	0	0	doorstop	512	178	0	stimuli\doorstop\doorstop_05s.jpg	4	-1	0	0	doorstop_05s.jpg	0	0.0	0	237.174747072335	237.22472283768	0.0499757653451525	77767
77.867	50	179	0	0	lion	933	179	0	stimuli\lion\lion_09s.jpg	8	-1	0	0	lion_09s.jpg	0	0.0	0	237.274744683004	237.324726787396	0.0499821043922566	77867
77.967	50	180	0	0	rosary	1333	180	0	stimuli\rosary\rosary_08s.jpg	7	-1	0	0	rosary_08s.jpg	0	0.0	0	237.37473522318803	237.42473049333802	0.049995270150247996	77967
78.067	50	181	0	0	kayak	863	181	0	stimuli\kayak\kayak_07s.jpg	6	-1	0	0	kayak_07s.jpg	0	0.0	0	237.474737466255	237.52471640112302	0.0499789348687045	78067
78.167	50	182	0	0	warthog	1781	182	0	stimuli\warthog\warthog_01b.jpg	0	-1	0	0	warthog_01b.jpg	0	0.0	0	237.574756775924	237.62473863654301	0.0499818606185727	78167
78.267	50	183	0	0	beet	114	183	0	stimuli\beet\beet_04s.jpg	3	-1	0	0	beet_04s.jpg	0	0.0	0	237.674740733288	237.724723325344	0.0499825920560397	78267
78.367	50	184	0	0	rhubarb	1307	184	0	stimuli\rhubarb\rhubarb_01b.jpg	0	-1	0	0	rhubarb_01b.jpg	0	0.0	0	237.774741269706	237.824742147408	0.0500008777016774	78367
78.467	50	185	0	0	bandanna	67	185	0	stimuli\bandanna\bandanna_05s.jpg	4	-1	0	0	bandanna_05s.jpg	0	0.0	0	237.87475521554	237.92474609712397	0.0499908815836534	78467
78.567	50	186	0	0	television	1641	186	0	stimuli\television\television_09s.jpg	8	-1	0	0	television_09s.jpg	0	0.0	0	237.974743317696	238.024722984002	0.0499796663061716	78567
78.667	50	187	0	0	moccasin	1010	187	0	stimuli\moccasin\moccasin_10s.jpg	9	-1	0	0	moccasin_10s.jpg	0	0.0	0	238.07474434166198	238.12472766515597	0.0499833234935068	78667
78.767	50	188	0	0	goat	684	188	0	stimuli\goat\goat_11s.jpg	10	-1	0	0	goat_11s.jpg	0	0.0	0	238.174762676121	238.224747950037	0.0499852739158086	78767
78.867	50	189	0	0	counter	424	189	0	stimuli\counter\counter_02s.jpg	1	-1	0	0	counter_02s.jpg	0	0.0	0	238.274766382005	238.324751168315	0.0499847863102332	78867
78.967	50	190	0	0	car	267	190	0	stimuli\car\car_09s.jpg	8	-1	0	0	car_09s.jpg	0	0.0	0	238.374753508891	238.42473366286097	0.0499801539699547	78967
79.067	50	191	0	0	souffle	1498	191	0	stimuli\souffle\souffle_12s.jpg	11	-1	0	0	souffle_12s.jpg	0	0.0	0	238.474772087182	238.524751753488	0.0499796663061716	79067
79.167	50	192	0	0	periscope	1155	192	0	stimuli\periscope\periscope_05s.jpg	4	-1	0	0	periscope_05s.jpg	0	0.0	0	238.57477335497998	238.62475424032903	0.0499808853492141	79167
79.267	50	193	0	0	card	271	193	0	stimuli\card\card_04s.jpg	3	-1	0	0	card_04s.jpg	0	0.0	0	238.674774622777	238.724756971002	0.0499823482241482	79267
79.367	50	194	0	0	razor_blade	1291	194	0	stimuli\razor_blade\razor_blade_06s.jpg	5	-1	0	0	razor_blade_06s.jpg	0	0.0	0	238.77476126205897	238.824745316932	0.0499840548727661	79367
79.467	50	195	0	0	unicycle	1746	195	0	stimuli\unicycle\unicycle_04s.jpg	3	-1	0	0	unicycle_04s.jpg	0	0.0	0	238.87478447268902	238.924765114207	0.0499806415173225	79467
79.567	50	196	0	0	jet	847	196	0	stimuli\jet\jet_07s.jpg	6	-1	0	0	jet_07s.jpg	0	0.0	0	238.97477257478698	239.024768820149	0.0499962453613989	79567
79.667	50	197	0	0	bulletproof_vest	218	197	0	stimuli\bulletproof_vest\bulletproof_vest_01s.jpg	0	-1	0	0	bulletproof_vest_01s.jpg	0	0.0	0	239.07479188445703	239.124757897458	0.0499660130008124	79667
79.767	50	198	0	0	cigarette_butt	345	198	0	stimuli\cigarette_butt\cigarette_butt_07s.jpg	6	-1	0	0	cigarette_butt_07s.jpg	0	0.0	0	239.17479315225498	239.224759409088	0.0499662568327039	79767
79.867	50	199	0	0	lamb	889	199	0	stimuli\lamb\lamb_12s.jpg	11	-1	0	1	lamb_12s.jpg	0	0.0	0	239.27480173436902	239.324765065452	0.0499633310828358	79867
79.967	50	200	0	0	headdress	763	200	0	stimuli\headdress\headdress_12s.jpg	11	-1	0	0	headdress_12s.jpg	0	0.0	0	239.37479885743198	239.424781693262	0.0499828358297236	79967
80.067	50	201	0	0	chandelier	305	201	0	stimuli\chandelier\chandelier_01b.jpg	0	-1	0	0	chandelier_01b.jpg	0	0.0	0	239.474784033839	239.52476516296198	0.04998112912289799	80067
80.167	50	202	0	0	bench	120	202	0	stimuli\bench\bench_02s.jpg	1	-1	0	0	bench_02s.jpg	1	0.292145101586357	1	239.574804562551	239.62478691077598	0.0499823482241482	80167
80.267	50	203	0	0	kaleidoscope	861	203	0	stimuli\kaleidoscope\kaleidoscope_06s.jpg	5	-1	0	0	kaleidoscope_06s.jpg	0	0.0	0	239.674815826525	239.72477135574402	0.0499555292190053	80267
80.367	50	204	0	0	fishing_pole	603	204	0	stimuli\fishing_pole\fishing_pole_02s.jpg	1	-1	0	0	fishing_pole_02s.jpg	0	0.0	0	239.77481343719398	239.82479017780898	0.0499767406145111	80367
80.467	50	205	0	0	caviar	289	205	0	stimuli\caviar\caviar_12s.jpg	11	-1	0	0	caviar_12s.jpg	0	0.0	0	239.874812998343	239.92477730469503	0.0499643063521944	80467
80.567	50	206	0	0	lighter	928	206	0	stimuli\lighter\lighter_02s.jpg	1	-1	0	0	lighter_02s.jpg	0	0.0	0	239.97481207188702	240.024776134407	0.0499640625203028	80567
80.667	50	207	0	0	racket	1270	207	0	stimuli\racket\racket_01b.jpg	0	-1	0	0	racket_01b.jpg	0	0.0	0	240.074809926329	240.124802758335	0.0499928320059553	80667
80.767	50	208	0	0	cigarette_holder	346	208	0	stimuli\cigarette_holder\cigarette_holder_04s.jpg	3	-1	0	0	cigarette_holder_04s.jpg	0	0.0	0	240.17482338461602	240.224782570964	0.0499591863481328	80767
80.867	50	209	0	0	oatmeal	1069	209	0	stimuli\oatmeal\oatmeal_10s.jpg	9	-1	0	0	oatmeal_10s.jpg	0	0.0	0	240.274809292459	240.32479383493802	0.0499845424783416	80867
80.967	50	210	0	0	thermos	1647	210	0	stimuli\thermos\thermos_06s.jpg	5	-1	0	0	thermos_06s.jpg	0	0.0	0	240.374824701168	240.424804367474	0.0499796663061716	80967
81.067	50	211	0	0	microscope	999	211	0	stimuli\microscope\microscope_05s.jpg	4	-1	0	0	microscope_05s.jpg	0	0.0	0	240.474810121406	240.52478905627498	0.0499789348687045	81067
81.167	50	212	0	0	shaving_cream	1410	212	0	stimuli\shaving_cream\shaving_cream_06s.jpg	5	-1	0	0	shaving_cream_06s.jpg	0	0.0	0	240.574810657767	240.624810804089	0.050000146322418	81167
81.267	50	213	0	0	soldering_iron	1494	213	0	stimuli\soldering_iron\soldering_iron_05s.jpg	4	-1	0	0	soldering_iron_05s.jpg	0	0.0	0	240.6748304551	240.72481207188702	0.0499816167866811	81267
81.367	50	214	0	0	fur_coat	650	214	0	stimuli\fur_coat\fur_coat_01b.jpg	0	-1	0	0	fur_coat_01b.jpg	0	0.0	0	240.77483342954702	240.82479871111	0.0499652815633453	81367
81.467	50	215	0	0	mast	981	215	0	stimuli\mast\mast_01b.jpg	0	-1	0	0	mast_01b.jpg	0	0.0	0	240.874840548786	240.924819483655	0.0499789348687045	81467
81.567	50	216	0	0	exerciser	561	216	0	stimuli\exerciser\exerciser_03s.jpg	2	-1	0	0	exerciser_03s.jpg	0	0.0	0	240.974840597541	241.02480514766603	0.0499645501258783	81567
81.667	50	217	0	0	firetruck	596	217	0	stimuli\firetruck\firetruck_04s.jpg	3	-1	0	0	firetruck_04s.jpg	0	0.0	0	241.07485088630298	241.124821775476	0.0499708891729824	81667
81.767	50	218	0	0	mallet	962	218	0	stimuli\mallet\mallet_08s.jpg	7	-1	0	0	mallet_08s.jpg	0	0.0	0	241.1748699522	241.224826944235	0.0499569920357317	81767
81.867	50	219	0	0	incense	826	219	0	stimuli\incense\incense_08s.jpg	7	-1	0	0	incense_08s.jpg	0	0.0	0	241.27483123529203	241.324828212033	0.0499969767406583	81867
81.967	50	220	0	0	chair	300	220	0	stimuli\chair\chair_12s.jpg	11	-1	0	0	chair_12s.jpg	0	0.0	0	241.37484566879	241.42483484366699	0.0499891748768277	81967
82.067	50	221	0	0	button1	230	221	0	stimuli\button1\button1_11s.jpg	10	-1	0	0	button1_11s.jpg	0	0.0	0	241.47483425849398	241.524820263847	0.0499860053532757	82067
82.167	50	222	0	0	heater	772	222	0	stimuli\heater\heater_01b.jpg	0	-1	0	0	heater_01b.jpg	0	0.0	0	241.57485527487003	241.62483469734403	0.04997942247428	82167
82.267	50	223	0	0	oven	1089	223	0	stimuli\oven\oven_06s.jpg	5	-1	0	0	oven_06s.jpg	0	0.0	0	241.674854836019	241.72483791562303	0.0499830796034075	82267
82.367	50	224	0	0	coal	367	224	0	stimuli\coal\coal_03s.jpg	2	-1	0	0	coal_03s.jpg	0	0.0	0	241.77486024855202	241.824839671084	0.0499794225324877	82367
82.467	50	225	0	0	raspberry	1284	225	0	stimuli\raspberry\raspberry_08s.jpg	7	-1	0	0	raspberry_08s.jpg	0	0.0	0	241.874848106876	241.92482655413897	0.0499784472631291	82467
82.567	50	226	0	0	moss	1022	226	0	stimuli\moss\moss_07s.jpg	6	-1	0	0	moss_07s.jpg	0	0.0	0	241.97486205276797	242.024844644766	0.0499825919978321	82567
82.667	50	227	0	0	goose	693	227	0	stimuli\goose\goose_06s.jpg	5	-1	0	0	goose_06s.jpg	0	0.0	0	242.07485527487003	242.124845424958	0.0499901500879787	82667
82.767	50	228	0	0	coaster	368	228	0	stimuli\coaster\coaster_04s.jpg	3	-1	0	0	coaster_04s.jpg	0	0.0	0	242.174870439805	242.224838159455	0.0499677196494304	82767
82.867	50	229	0	0	boxer_shorts	182	229	0	stimuli\boxer_shorts\boxer_shorts_02s.jpg	1	-1	0	0	boxer_shorts_02s.jpg	0	0.0	0	242.274854397168	242.324855518644	0.0500011214753613	82867
82.967	50	230	0	0	mistletoe	1007	230	0	stimuli\mistletoe\mistletoe_07s.jpg	6	-1	0	0	mistletoe_07s.jpg	0	0.0	0	242.374872731627	242.424852641707	0.0499799100798555	82967
83.067	50	231	0	0	engine	557	231	0	stimuli\engine\engine_09s.jpg	8	-1	0	0	engine_09s.jpg	0	0.0	0	242.474874730862	242.52484001242598	0.0499652815633453	83067
83.167	50	232	0	0	needle	1055	232	0	stimuli\needle\needle_07s.jpg	6	-1	0	0	needle_07s.jpg	0	0.0	0	242.574882581481	242.62486249161898	0.0499799101380631	83167
83.267	50	233	0	0	swizzle_stick	1601	233	0	stimuli\swizzle_stick\swizzle_stick_10s.jpg	9	-1	0	0	swizzle_stick_10s.jpg	0	0.0	0	242.67488043598098	242.72486205276797	0.0499816167866811	83267
83.367	50	234	0	0	parsley	1122	234	0	stimuli\parsley\parsley_04s.jpg	3	-1	0	0	parsley_04s.jpg	0	0.0	0	242.774884873303	242.824867709132	0.0499828358297236	83367
83.467	50	235	0	0	mousetrap	1029	235	0	stimuli\mousetrap\mousetrap_11s.jpg	10	-1	0	0	mousetrap_11s.jpg	0	0.0	0	242.874872243963	242.924867757887	0.0499955139239319	83467
83.567	50	236	0	0	wheat	1805	236	0	stimuli\wheat\wheat_09n.jpg	8	-1	0	0	wheat_09n.jpg	0	0.0	0	242.974887165125	243.02486926951698	0.0499821043922566	83567
83.667	50	237	0	0	birdbath	129	237	0	stimuli\birdbath\birdbath_07s.jpg	6	-1	0	0	birdbath_07s.jpg	0	0.0	0	243.07489111483997	243.124858590658	0.0499674758175388	83667
83.767	50	238	0	0	tablecloth	1609	238	0	stimuli\tablecloth\tablecloth_10s.jpg	9	-1	0	0	tablecloth_10s.jpg	0	0.0	0	243.174896283541	243.224859858456	0.0499635749147274	83767
83.867	50	239	0	0	sunroof	1586	239	0	stimuli\sunroof\sunroof_04s.jpg	3	-1	0	0	sunroof_04s.jpg	0	0.0	0	243.27489389421	243.32488160627003	0.0499877120601013	83867
83.967	50	240	0	0	gurney	728	240	0	stimuli\gurney\gurney_06s.jpg	5	-1	0	0	gurney_06s.jpg	0	0.0	0	243.37489979440602	243.42488043598098	0.0499806415755302	83967
84.067	50	241	0	0	shirt	1422	241	0	stimuli\shirt\shirt_03s.jpg	2	-1	0	0	shirt_03s.jpg	0	0.0	0	243.474887408898	243.524881459947	0.0499940510489978	84067
84.167	50	242	0	0	plum	1203	242	0	stimuli\plum\plum_09s.jpg	8	-1	0	0	plum_09s.jpg	0	0.0	0	243.574904036708	243.624888091581	0.0499840548727661	84167
84.267	50	243	0	0	sardine	1359	243	0	stimuli\sardine\sardine_10s.jpg	9	-1	0	0	sardine_10s.jpg	0	0.0	0	243.674889213115	243.72488692129298	0.0499977081781253	84267
84.367	50	244	0	0	banner	70	244	0	stimuli\banner\banner_12s.jpg	11	-1	0	0	banner_12s.jpg	0	0.0	0	243.77490803517898	243.82488770148498	0.0499796663061716	84367
84.467	50	245	0	0	stilt	1555	245	0	stimuli\stilt\stilt_09s.jpg	8	-1	0	0	stilt_09s.jpg	0	0.0	0	243.874917836278	243.924889944552	0.0499721082742326	84467
84.567	50	246	0	0	violin	1764	246	0	stimuli\violin\violin_03n.jpg	2	-1	0	0	violin_03n.jpg	0	0.0	0	243.97491812886398	244.024882191385	0.0499640625203028	84567
84.667	50	247	0	0	hand	744	247	0	stimuli\hand\hand_09s.jpg	8	-1	0	0	hand_09s.jpg	0	0.0	0	244.074921590975	244.124883215409	0.0499616244342178	84667
84.767	50	248	0	0	penguin	1145	248	0	stimuli\penguin\penguin_12s.jpg	11	-1	0	0	penguin_12s.jpg	0	0.0	0	244.174902622588	244.224897892738	0.049995270150247996	84767
84.867	50	249	0	0	sidecar	1442	249	0	stimuli\sidecar\sidecar_07s.jpg	6	-1	0	0	sidecar_07s.jpg	0	0.0	0	244.27490364661202	244.32490135479	0.0499977081781253	84867
84.967	50	250	0	0	saxophone	1368	250	0	stimuli\saxophone\saxophone_12s.jpg	11	-1	0	0	saxophone_12s.jpg	0	0.0	0	244.374924419157	244.424903110252	0.0499786910950206	84967
85.067	50	251	0	0	fence	575	251	0	stimuli\fence\fence_07s.jpg	6	-1	0	0	fence_07s.jpg	0	0.0	0	244.47492398030602	244.52489096851798	0.0499669882119633	85067
85.167	50	252	0	0	melon	994	252	0	stimuli\melon\melon_06s.jpg	5	-1	0	0	melon_06s.jpg	0	0.0	0	244.574912570009	244.624907840102	0.0499952700920403	85167
85.267	50	253	0	0	easel	542	253	0	stimuli\easel\easel_05s.jpg	4	-1	0	0	easel_05s.jpg	0	0.0	0	244.67491505685	244.724912033649	0.0499969767988659	85267
85.367	50	254	0	0	stump	1576	254	0	stimuli\stump\stump_07s.jpg	6	-1	0	0	stump_07s.jpg	0	0.0	0	244.774921200878	244.824897941493	0.0499767406145111	85367
85.467	50	255	0	0	water_filter	1789	255	0	stimuli\water_filter\water_filter_01b.jpg	0	-1	0	0	water_filter_01b.jpg	0	0.0	0	244.87493782862998	244.92490359785702	0.0499657692271285	85467
85.567	50	256	0	0	sling	1466	256	0	stimuli\sling\sling_03s.jpg	2	-1	0	0	sling_03s.jpg	0	0.0	0	244.974938121217	245.024917787523	0.0499796663061716	85567
85.667	50	257	0	0	fishbowl	601	257	0	stimuli\fishbowl\fishbowl_04s.jpg	3	-1	0	0	fishbowl_04s.jpg	0	0.0	0	245.074942070933	245.124928807723	0.0499867367907427	85667
85.768	50	258	0	0	tray	1705	258	0	stimuli\tray\tray_11s.jpg	10	-1	0	0	tray_11s.jpg	0	0.0	0	245.174945289211	245.224922761263	0.0499774720519781	85768
85.867	50	259	0	0	rooster	1330	259	0	stimuli\rooster\rooster_03s.jpg	2	-1	0	0	rooster_03s.jpg	0	0.0	0	245.27492802753102	245.324919152888	0.0499911253573373	85867
85.968	50	260	0	0	clove	365	260	0	stimuli\clove\clove_05s.jpg	4	-1	0	0	clove_05s.jpg	0	0.0	0	245.374949043908	245.424922127335	0.0499730834271759	85968
86.068	50	261	0	0	pita	1189	261	0	stimuli\pita\pita_07s.jpg	6	-1	0	0	pita_07s.jpg	0	0.0	0	245.474945435475	245.52492241992098	0.0499769844464026	86068
86.168	50	262	0	0	anklet	23	262	0	stimuli\anklet\anklet_11s.jpg	10	-1	0	0	anklet_11s.jpg	0	0.0	0	245.57494548428798	245.62492417532502	0.049978691036812996	86168
86.268	50	263	0	0	maple_syrup	971	263	0	stimuli\maple_syrup\maple_syrup_10s.jpg	9	-1	0	0	maple_syrup_10s.jpg	0	0.0	0	245.67495162825801	245.72492885647802	0.0499772282200865	86268
86.368	50	264	0	0	parking_meter	1120	264	0	stimuli\parking_meter\parking_meter_06s.jpg	5	-1	0	0	parking_meter_06s.jpg	0	0.0	0	245.774960210314	245.824929149065	0.0499689387506805	86368
86.468	50	265	0	0	weed	1802	265	0	stimuli\weed\weed_01b.jpg	0	-1	0	0	weed_01b.jpg	0	0.0	0	245.874967329553	245.924932123511	0.0499647939577699	86468
86.568	50	266	0	0	tube_top	1724	266	0	stimuli\tube_top\tube_top_11s.jpg	10	-1	0	0	tube_top_11s.jpg	0	0.0	0	245.974956163089	246.02493534178902	0.0499791787005961	86568
86.668	50	267	0	0	gear	667	267	0	stimuli\gear\gear_05s.jpg	4	-1	0	0	gear_05s.jpg	0	0.0	0	246.07495621184398	246.124923687719	0.0499674758757465	86668
86.767	50	268	0	0	scanner	1375	268	0	stimuli\scanner\scanner_10s.jpg	9	-1	0	0	scanner_10s.jpg	0	0.0	0	246.17494382633598	246.22492593078601	0.0499821044504642	86767
86.868	50	269	0	0	espresso	560	269	0	stimuli\espresso\espresso_06s.jpg	5	-1	0	0	espresso_06s.jpg	0	0.0	0	246.27497337601397	246.324952310941	0.0499789349269122	86868
86.968	50	270	0	0	luggage	948	270	0	stimuli\luggage\luggage_03s.jpg	2	-1	0	0	luggage_03s.jpg	0	0.0	0	246.374963428651	246.424945045379	0.0499816167284735	86968
87.068	50	271	0	0	fire_alarm	591	271	0	stimuli\fire_alarm\fire_alarm_02s.jpg	1	-1	0	0	fire_alarm_02s.jpg	0	0.0	0	246.474971766875	246.52494728844601	0.0499755215714686	87068
87.168	50	272	0	0	motherboard	1024	272	0	stimuli\motherboard\motherboard_02s.jpg	1	-1	0	0	motherboard_02s.jpg	0	0.0	0	246.57497108425	246.62495026295102	0.0499791787005961	87168
87.268	50	273	0	0	roller_coaster	1325	273	0	stimuli\roller_coaster\roller_coaster_10s.jpg	9	-1	0	0	roller_coaster_10s.jpg	0	0.0	0	246.674974302528	246.72495274979198	0.0499784472631291	87268
87.368	50	274	0	0	scissors	1379	274	0	stimuli\scissors\scissors_08s.jpg	7	-1	0	0	scissors_08s.jpg	0	0.0	0	246.774982884584	246.82495791854998	0.0499750339658931	87368
87.468	50	275	0	0	gyro	730	275	0	stimuli\gyro\gyro_10s.jpg	9	-1	0	0	gyro_10s.jpg	0	0.0	0	246.87498147052202	246.92496211204	0.0499806415173225	87468
87.568	50	276	0	0	green_beans	712	276	0	stimuli\green_beans\green_beans_04s.jpg	3	-1	0	0	green_beans_04s.jpg	0	0.0	0	246.974982006883	247.024958503665	0.0499764967826195	87568
87.668	50	277	0	0	yo-yo	1847	277	0	stimuli\yo-yo\yo-yo_02s.jpg	1	-1	0	0	yo-yo_02s.jpg	0	0.0	0	247.07498132419997	247.124963184819	0.0499818606185727	87668
87.768	50	278	0	0	rock	1319	278	0	stimuli\rock\rock_05s.jpg	4	-1	0	0	rock_05s.jpg	0	0.0	0	247.174984298705	247.224965915491	0.0499816167866811	87768
87.868	50	279	0	0	grate	707	279	0	stimuli\grate\grate_10s.jpg	9	-1	0	0	grate_10s.jpg	0	0.0	0	247.274988004589	247.32496986520698	0.0499818606185727	87868
87.968	50	280	0	0	speedboat	1511	280	0	stimuli\speedboat\speedboat_04s.jpg	3	-1	0	0	speedboat_04s.jpg	0	0.0	0	247.374991710472	247.424974302528	0.0499825920560397	87968
88.068	50	281	0	0	jacket	836	281	0	stimuli\jacket\jacket_07s.jpg	6	-1	0	0	jacket_07s.jpg	0	0.0	0	247.47499175922698	247.524976057932	0.0499842987046577	88068
88.168	50	282	0	0	grinder	716	282	0	stimuli\grinder\grinder_02s.jpg	1	-1	0	0	grinder_02s.jpg	0	0.0	0	247.57499424612598	247.624980251479	0.0499860053532757	88168
88.268	50	283	0	0	cleat	353	283	0	stimuli\cleat\cleat_08s.jpg	7	-1	0	0	cleat_08s.jpg	0	0.0	0	247.674997464404	247.724980544008	0.0499830796034075	88268
88.368	50	284	0	0	shark	1409	284	0	stimuli\shark\shark_11s.jpg	10	-1	0	0	shark_11s.jpg	0	0.0	0	247.775000926456	247.824983030907	0.0499821044504642	88368
88.468	50	285	0	0	license_plate	921	285	0	stimuli\license_plate\license_plate_06s.jpg	5	-1	0	0	license_plate_06s.jpg	0	0.0	0	247.87500438856702	247.924983079662	0.0499786910950206	88468
88.568	50	286	0	0	handcuff	746	286	0	stimuli\handcuff\handcuff_05s.jpg	4	-1	0	0	handcuff_05s.jpg	0	0.0	0	247.975005168759	248.024984835065	0.0499796663061716	88568
88.668	50	287	0	0	toast	1665	287	0	stimuli\toast\toast_10s.jpg	9	-1	0	0	toast_10s.jpg	0	0.0	0	248.075005217514	248.124986102863	0.0499808853492141	88668
88.768	50	288	0	0	noodle	1061	288	0	stimuli\noodle\noodle_01s.jpg	0	-1	0	0	noodle_01s.jpg	0	0.0	0	248.17501038627202	248.224989321141	0.0499789348687045	88768
88.868	50	289	0	0	cd_player	290	289	0	stimuli\cd_player\cd_player_10s.jpg	9	-1	0	0	cd_player_10s.jpg	0	0.0	0	248.275011897902	248.324999122298	0.0499872243963182	88868
88.968	50	290	0	0	ostrich	1084	290	0	stimuli\ostrich\ostrich_06s.jpg	5	-1	0	0	ostrich_06s.jpg	0	0.0	0	248.375015359954	248.424993319612	0.0499779596575536	88968
89.068	50	291	0	0	weather_vane	1798	291	0	stimuli\weather_vane\weather_vane_01s.jpg	0	-1	0	0	weather_vane_01s.jpg	0	0.0	0	248.475015408767	248.525002145499	0.0499867367325351	89068
89.168	50	292	0	0	coral	406	292	0	stimuli\coral\coral_01b.jpg	0	-1	0	0	coral_01b.jpg	0	0.0	0	248.57501911465098	248.624999512394	0.0499803977436386	89168
89.268	50	293	0	0	hammer	741	293	0	stimuli\hammer\hammer_06s.jpg	5	-1	0	0	hammer_06s.jpg	0	0.0	0	248.675021845323	248.725007363013	0.0499855176894926	89268
89.368	50	294	0	0	marshmallow	977	294	0	stimuli\marshmallow\marshmallow_06s.jpg	5	-1	0	0	marshmallow_06s.jpg	0	0.0	0	248.77502701408199	248.82500716799402	0.049980153911747004	89368
89.468	50	295	0	0	ferris_wheel	579	295	0	stimuli\ferris_wheel\ferris_wheel_03s.jpg	2	-1	0	0	ferris_wheel_03s.jpg	0	0.0	0	248.87502608756802	248.925007216749	0.0499811291811056	89468
89.568	50	296	0	0	shelf	1416	296	0	stimuli\shelf\shelf_01b.jpg	0	-1	0	0	shelf_01b.jpg	0	0.0	0	248.97503198776403	249.02501506742598	0.0499830796616152	89568
89.668	50	297	0	0	bone	161	297	0	stimuli\bone\bone_06s.jpg	5	-1	0	0	bone_06s.jpg	0	0.0	0	249.07503203651902	249.12501097138698	0.0499789348687045	89668
89.768	50	298	0	0	smoke_alarm	1473	298	0	stimuli\smoke_alarm\smoke_alarm_07s.jpg	6	-1	0	0	smoke_alarm_07s.jpg	0	0.0	0	249.17503818054698	249.22501687158402	0.049978691036812996	89768
89.868	50	299	0	0	scallop	1373	299	0	stimuli\scallop\scallop_01b.jpg	0	-1	0	0	scallop_01b.jpg	0	0.0	0	249.275037254032	249.32501911465098	0.0499818606185727	89868
89.968	50	300	0	0	sombrero	1495	300	0	stimuli\sombrero\sombrero_03s.jpg	2	-1	0	0	sombrero_03s.jpg	0	0.0	0	249.375038765662	249.42503306054297	0.0499942948808894	89968
90.068	50	301	0	0	jug	853	301	0	stimuli\jug\jug_03s.jpg	2	-1	0	0	jug_03s.jpg	0	0.0	0	249.47504637250702	249.525024332164	0.0499779596575536	90068
90.168	50	302	0	0	clasp	351	302	0	stimuli\clasp\clasp_02s.jpg	1	-1	0	0	clasp_02s.jpg	0	0.0	0	249.57504739653098	249.625028038048	0.0499806415173225	90168
90.268	50	303	0	0	quill	1263	303	0	stimuli\quill\quill_05s.jpg	4	-1	0	0	quill_05s.jpg	0	0.0	0	249.675055247149	249.72503003728298	0.0499747901340015	90268
90.368	50	304	0	0	sweater	1592	304	0	stimuli\sweater\sweater_09s.jpg	8	-1	0	0	sweater_09s.jpg	0	0.0	0	249.77505700261102	249.82502984226397	0.049972839653492	90368
90.468	50	305	0	0	net	1057	305	0	stimuli\net\net_11s.jpg	10	-1	0	0	net_11s.jpg	0	0.0	0	249.87505510088502	249.925058416673	0.0500033157877624	90468
90.568	50	306	0	0	saucer	1363	306	0	stimuli\saucer\saucer_03s.jpg	2	-1	0	0	saucer_03s.jpg	0	0.0	0	249.97505685628897	250.025033596903	0.0499767406145111	90568
90.668	50	307	0	0	thorn	1650	307	0	stimuli\thorn\thorn_06s.jpg	5	-1	0	0	thorn_06s.jpg	0	0.0	0	250.07505666127003	250.125034864701	0.0499782034312375	90668
90.768	50	308	0	0	flower	619	308	0	stimuli\flower\flower_12s.jpg	11	-1	0	0	flower_12s.jpg	0	0.0	0	250.175062073802	250.225038570643	0.0499764968408272	90768
113.035	50	309	0	0	turntable	1735	0	1	stimuli\turntable\turntable_02s.jpg	1	-1	1	0	turntable_02s.jpg	0	0.0	0	272.442286218342	272.492265640874	0.0499794225324877	113035
113.135	50	310	0	0	peanut_butter	1132	1	1	stimuli\peanut_butter\peanut_butter_12s.jpg	11	-1	1	0	peanut_butter_12s.jpg	0	0.0	0	272.542285291885	272.59227227245	0.0499869805644266	113135
113.235	50	311	0	0	revolver	1304	2	1	stimuli\revolver\revolver_11s.jpg	10	-1	1	0	revolver_11s.jpg	0	0.0	0	272.642290460644	272.69227012695	0.0499796663061716	113235
113.335	50	312	0	0	elephant	554	3	1	stimuli\elephant\elephant_05n.jpg	4	-1	1	0	elephant_05n.jpg	0	0.0	0	272.74228953413	272.79227505187697	0.0499855177477002	113335
113.435	50	313	0	0	snack	1475	4	1	stimuli\snack\snack_01b.jpg	0	-1	1	0	snack_01b.jpg	0	0.0	0	272.842294215283	272.892273881589	0.0499796663061716	113435
113.535	50	314	0	0	bagpipe	56	5	1	stimuli\bagpipe\bagpipe_06s.jpg	5	-1	1	0	bagpipe_06s.jpg	0	0.0	0	272.94229645835	272.99227709986695	0.0499806415173225	113535
113.635	50	315	0	0	cookie	400	6	1	stimuli\cookie\cookie_04s.jpg	3	-1	1	0	cookie_04s.jpg	0	0.0	0	273.042299920402	273.092289826716	0.0499899063142948	113635
113.735	50	316	0	0	chili	327	7	1	stimuli\chili\chili_03s.jpg	2	-1	1	0	chili_03s.jpg	0	0.0	0	273.142304357723	273.192282561213	0.0499782034894451	113735
113.835	50	317	0	0	pliers	1201	8	1	stimuli\pliers\pliers_10s.jpg	9	-1	1	0	pliers_10s.jpg	0	0.0	0	273.24230343126703	273.29228748613997	0.0499840548727661	113835
113.935	50	318	0	0	lava	903	9	1	stimuli\lava\lava_12s.jpg	11	-1	1	0	lava_12s.jpg	0	0.0	0	273.342305430502	273.39229289873	0.0499874682282098	113935
114.035	50	319	0	0	rain_gauge	1278	10	1	stimuli\rain_gauge\rain_gauge_02s.jpg	1	-1	1	0	rain_gauge_02s.jpg	0	0.0	0	273.442310355429	273.49228953413	0.0499791787005961	114035
114.135	50	320	0	0	root	1331	11	1	stimuli\root\root_10s.jpg	9	-1	1	0	root_10s.jpg	0	0.0	0	273.54230894136697	273.592293971451	0.0499850300839171	114135
114.235	50	321	0	0	turtle	1736	12	1	stimuli\turtle\turtle_01b.jpg	0	-1	1	0	turtle_01b.jpg	0	0.0	0	273.642315329169	273.692295726913	0.0499803977436386	114235
114.335	50	322	0	0	crown	448	13	1	stimuli\crown\crown_12s.jpg	11	-1	1	0	crown_12s.jpg	0	0.0	0	273.742316353135	273.792300164234	0.0499838110990822	114335
114.435	50	323	0	0	train_car	1699	14	1	stimuli\train_car\train_car_02s.jpg	1	-1	1	0	train_car_02s.jpg	0	0.0	0	273.842319815245	273.892303870118	0.0499840548727661	114435
114.535	50	324	0	0	coat	369	15	1	stimuli\coat\coat_10s.jpg	9	-1	1	0	coat_10s.jpg	0	0.0	0	273.942322545918	273.992308063665	0.0499855177477002	114535
114.635	50	325	0	0	ready_meal	1292	16	1	stimuli\ready_meal\ready_meal_11s.jpg	10	-1	1	0	ready_meal_11s.jpg	0	0.0	0	274.04232625180197	274.09230250481096	0.0499762530089356	114635
114.735	50	326	0	0	sloth	1471	17	1	stimuli\sloth\sloth_05s.jpg	4	-1	1	0	sloth_05s.jpg	0	0.0	0	274.142324106302	274.192307673569	0.0499835672671907	114735
114.835	50	327	0	0	bassinet	85	18	1	stimuli\bassinet\bassinet_01b.jpg	0	-1	1	0	bassinet_01b.jpg	0	0.0	0	274.242332444584	274.292312110891	0.0499796663061716	114835
114.935	50	328	0	0	mandolin	965	19	1	stimuli\mandolin\mandolin_08s.jpg	7	-1	1	0	mandolin_08s.jpg	0	0.0	0	274.342339319992	274.39231923012994	0.0499799101380631	114935
115.035	50	329	0	0	curling_iron	463	20	1	stimuli\curling_iron\curling_iron_06s.jpg	5	-1	1	0	curling_iron_06s.jpg	0	0.0	0	274.442334492574	274.492315865529	0.0499813729547895	115035
115.135	50	330	0	0	washboard	1782	21	1	stimuli\washboard\washboard_03s.jpg	2	-1	1	0	washboard_03s.jpg	0	0.0	0	274.542338686064	274.592321034288	0.0499823482241482	115135
115.235	50	331	0	0	bedpost	110	22	1	stimuli\bedpost\bedpost_07s.jpg	6	-1	1	0	bedpost_07s.jpg	0	0.0	0	274.642341416737	274.69232693448396	0.0499855177477002	115235
115.335	50	332	0	0	cardigan	273	23	1	stimuli\cardigan\cardigan_02s.jpg	1	-1	1	0	cardigan_02s.jpg	0	0.0	0	274.742344878847	274.79232503275904	0.049980153911747004	115335
115.435	50	333	0	0	bus	226	24	1	stimuli\bus\bus_02n.jpg	1	-1	1	0	bus_02n.jpg	0	0.0	0	274.842342245684	274.892327275826	0.0499850301421247	115435
115.535	50	334	0	0	funnel	649	25	1	stimuli\funnel\funnel_10s.jpg	9	-1	1	0	funnel_10s.jpg	0	0.0	0	274.942345220188	274.99233293219	0.0499877120018937	115535
115.635	50	335	0	0	cobra	371	26	1	stimuli\cobra\cobra_01b.jpg	0	-1	1	0	cobra_01b.jpg	0	0.0	0	275.04234941367804	275.092331274296	0.0499818606185727	115635
115.735	50	336	0	0	meat_grinder	988	27	1	stimuli\meat_grinder\meat_grinder_05s.jpg	4	-1	1	0	meat_grinder_05s.jpg	0	0.0	0	275.142351656745	275.19233522401197	0.0499835672671907	115735
115.835	50	337	0	0	confetti	396	28	1	stimuli\confetti\confetti_11s.jpg	10	-1	1	0	confetti_11s.jpg	0	0.0	0	275.242340246448	275.29233551654	0.0499952700920403	115835
115.935	50	338	0	0	tambourine	1619	29	1	stimuli\tambourine\tambourine_12s.jpg	11	-1	1	0	tambourine_12s.jpg	0	0.0	0	275.34235516761004	275.392335565353	0.0499803977436386	115935
116.035	50	339	0	0	barcode	73	30	1	stimuli\barcode\barcode_06s.jpg	5	-1	1	0	barcode_06s.jpg	0	0.0	0	275.442358385888	275.492321229365	0.0499628434772603	116035
116.135	50	340	0	0	jewelry	850	31	1	stimuli\jewelry\jewelry_08s.jpg	7	-1	1	0	jewelry_08s.jpg	0	0.0	0	275.54236062889703	275.59234029520303	0.0499796663061716	116135
116.235	50	341	0	0	macaroni	952	32	1	stimuli\macaroni\macaroni_05s.jpg	4	-1	1	0	macaroni_05s.jpg	0	0.0	0	275.642368723406	275.692344244919	0.0499755215132609	116235
116.335	50	342	0	0	guacamole	719	33	1	stimuli\guacamole\guacamole_08s.jpg	7	-1	1	0	guacamole_08s.jpg	0	0.0	0	275.742318059842	275.792351851764	0.0500337919220328	116335
116.435	50	343	0	0	highlighter	778	34	1	stimuli\highlighter\highlighter_09s.jpg	8	-1	1	0	highlighter_09s.jpg	0	0.0	0	275.842375647568	275.892351169139	0.0499755215714686	116435
116.535	50	344	0	0	sandpaper	1356	35	1	stimuli\sandpaper\sandpaper_01b.jpg	0	-1	1	0	sandpaper_01b.jpg	0	0.0	0	275.942371795361	275.992352680711	0.0499808853492141	116535
116.635	50	345	0	0	pump	1252	36	1	stimuli\pump\pump_08s.jpg	7	-1	1	0	pump_08s.jpg	0	0.0	0	276.04237793939	276.092356142821	0.0499782034312375	116635
116.735	50	346	0	0	whiteboard	1813	37	1	stimuli\whiteboard\whiteboard_08s.jpg	7	-1	1	0	whiteboard_08s.jpg	0	0.0	0	276.142375550058	276.192360336368	0.0499847863102332	116735
116.835	50	347	0	0	pogo_stick	1208	38	1	stimuli\pogo_stick\pogo_stick_08s.jpg	7	-1	1	0	pogo_stick_08s.jpg	0	0.0	0	276.24238193786	276.29236233560397	0.0499803977436386	116835
116.935	50	348	0	0	corset	418	39	1	stimuli\corset\corset_03s.jpg	2	-1	1	0	corset_03s.jpg	0	0.0	0	276.342383693263	276.39236116531504	0.0499774720519781	116935
117.035	50	349	0	0	dip	487	40	1	stimuli\dip\dip_01b.jpg	0	-1	1	0	dip_01b.jpg	0	0.0	0	276.442386423936	276.49236950354	0.0499830796034075	117035
117.135	50	350	0	0	slot_machine	1470	41	1	stimuli\slot_machine\slot_machine_08s.jpg	7	-1	1	0	slot_machine_08s.jpg	0	0.0	0	276.54238939838297	276.592367114208	0.049977715825661996	117135
117.235	50	351	0	0	headlight	765	42	1	stimuli\headlight\headlight_10s.jpg	9	-1	1	0	headlight_10s.jpg	0	0.0	0	276.64239066617995	276.692369113443	0.0499784472631291	117235
117.335	50	352	0	0	abacus	1	43	1	stimuli\abacus\abacus_12s.jpg	11	-1	1	0	abacus_12s.jpg	0	0.0	0	276.742393396853	276.79237062507303	0.0499772282200865	117335
117.435	50	353	0	0	grits	717	44	1	stimuli\grits\grits_06s.jpg	5	-1	1	0	grits_06s.jpg	0	0.0	0	276.842398078006	276.892377256707	0.0499791787005961	117435
117.535	50	354	0	0	inkwell	830	45	1	stimuli\inkwell\inkwell_08s.jpg	7	-1	1	0	inkwell_08s.jpg	0	0.0	0	276.942401296285	276.992379499716	0.0499782034312375	117535
117.635	50	355	0	0	face_mask	570	46	1	stimuli\face_mask\face_mask_10s.jpg	9	-1	1	0	face_mask_10s.jpg	0	0.0	0	277.042401832645	277.092380279908	0.0499784472631291	117635
117.735	50	356	0	0	jam	839	47	1	stimuli\jam\jam_09s.jpg	8	-1	1	0	jam_09s.jpg	0	0.0	0	277.142400662357	277.19238203537003	0.0499813730129972	117735
117.835	50	357	0	0	cactus	235	48	1	stimuli\cactus\cactus_03s.jpg	2	-1	1	0	cactus_03s.jpg	0	0.0	0	277.24240607494704	277.292387691734	0.0499816167866811	117835
117.935	50	358	0	0	toaster_oven	1667	49	1	stimuli\toaster_oven\toaster_oven_08s.jpg	7	-1	1	0	toaster_oven_08s.jpg	0	0.0	0	277.34240880562	277.392390422407	0.0499816167866811	117935
118.035	50	359	0	0	wreck	1840	50	1	stimuli\wreck\wreck_11s.jpg	10	-1	1	0	wreck_11s.jpg	0	0.0	0	277.44240934197995	277.49239290924703	0.0499835672671907	118035
118.135	50	360	0	0	spacesuit	1502	51	1	stimuli\spacesuit\spacesuit_12s.jpg	11	-1	1	1	spacesuit_12s.jpg	0	0.0	0	277.54241085361	277.59239344560797	0.0499825919978321	118135
118.235	50	361	0	0	spider_web	1514	52	1	stimuli\spider_web\spider_web_03s.jpg	2	-1	1	0	spider_web_03s.jpg	0	0.0	0	277.642416509974	277.6923942258	0.049977715825661996	118235
118.335	50	362	0	0	patty	1126	53	1	stimuli\patty\patty_06s.jpg	5	-1	1	0	patty_06s.jpg	0	0.0	0	277.742418021604	277.792400613602	0.0499825919978321	118335
118.435	50	363	0	0	punching_bag	1256	54	1	stimuli\punching_bag\punching_bag_03s.jpg	2	-1	1	0	punching_bag_03s.jpg	1	0.292182648205198	1	277.842421727488	277.892402369063	0.0499806415755302	118435
118.535	50	364	0	0	wallpaper	1777	55	1	stimuli\wallpaper\wallpaper_06s.jpg	5	-1	1	0	wallpaper_06s.jpg	0	0.0	0	277.942424458161	277.99240241781797	0.0499779596575536	118535
118.635	50	365	0	0	bread	194	56	1	stimuli\bread\bread_04s.jpg	3	-1	1	0	bread_04s.jpg	0	0.0	0	278.04243060212997	278.092409293226	0.0499786910950206	118635
118.735	50	366	0	0	fishnet_stockings	604	57	1	stimuli\fishnet_stockings\fishnet_stockings_03s.jpg	2	-1	1	0	fishnet_stockings_03s.jpg	0	0.0	0	278.14242748142004	278.192410073418	0.0499825919978321	118735
118.835	50	367	0	0	trap	1702	58	1	stimuli\trap\trap_06s.jpg	5	-1	1	0	trap_06s.jpg	0	0.0	0	278.242433137784	278.292409634567	0.0499764967826195	118835
118.935	50	368	0	0	tumbleweed	1727	59	1	stimuli\tumbleweed\tumbleweed_12s.jpg	11	-1	1	0	tumbleweed_12s.jpg	0	0.0	0	278.34243026084704	278.392411146197	0.0499808853492141	118935
119.035	50	369	0	0	gorilla	695	60	1	stimuli\gorilla\gorilla_02s.jpg	1	-1	1	0	gorilla_02s.jpg	0	0.0	0	278.442432503856	278.492418021604	0.0499855177477002	119035
119.135	50	370	0	0	stereo	1549	61	1	stimuli\stereo\stereo_02s.jpg	1	-1	1	0	stereo_02s.jpg	0	0.0	0	278.54244011070097	278.592422458925	0.0499823482241482	119135
119.235	50	371	0	0	fish	600	62	1	stimuli\fish\fish_06s.jpg	5	-1	1	0	fish_06s.jpg	0	0.0	0	278.642439428018	278.692421532469	0.0499821044504642	119235
119.335	50	372	0	0	guardrail	720	63	1	stimuli\guardrail\guardrail_07s.jpg	6	-1	1	0	guardrail_07s.jpg	0	0.0	0	278.742443621566	278.79242084978597	0.0499772282200865	119335
119.435	50	373	0	0	canvas	264	64	1	stimuli\canvas\canvas_03s.jpg	2	-1	1	0	canvas_03s.jpg	0	0.0	0	278.84244269511004	278.892427237588	0.0499845424783416	119435
119.535	50	374	0	0	jump_rope	858	65	1	stimuli\jump_rope\jump_rope_05s.jpg	4	-1	1	0	jump_rope_05s.jpg	0	0.0	0	278.942447376205	278.992430699698	0.0499833234935068	119535
119.635	50	375	0	0	jalapeno	838	66	1	stimuli\jalapeno\jalapeno_04s.jpg	3	-1	1	0	jalapeno_04s.jpg	0	0.0	0	279.04245937161596	279.09242904174596	0.0499696701299399	119635
119.735	50	376	0	0	perfume	1154	67	1	stimuli\perfume\perfume_04s.jpg	3	-1	1	0	perfume_04s.jpg	0	0.0	0	279.142453568988	279.192432260083	0.0499786910950206	119735
119.835	50	377	0	0	road_sign	1315	68	1	stimuli\road_sign\road_sign_09s.jpg	8	-1	1	0	road_sign_09s.jpg	0	0.0	0	279.24245410534803	279.292434503091	0.0499803977436386	119835
119.935	50	378	0	0	palm_tree	1102	69	1	stimuli\palm_tree\palm_tree_07s.jpg	6	-1	1	0	palm_tree_07s.jpg	0	0.0	0	279.342456104583	279.392436258553	0.0499801539699547	119935
120.035	50	379	0	0	hash	756	70	1	stimuli\hash\hash_11s.jpg	10	-1	1	0	hash_11s.jpg	0	0.0	0	279.442461273342	279.492447034863	0.0499857615213841	120035
120.135	50	380	0	0	magnifier	957	71	1	stimuli\magnifier\magnifier_02s.jpg	1	-1	1	0	magnifier_02s.jpg	0	0.0	0	279.542465954495	279.592449765536	0.0499838110408746	120135
120.235	50	381	0	0	celery	291	72	1	stimuli\celery\celery_05s.jpg	4	-1	1	0	celery_05s.jpg	0	0.0	0	279.642470879422	279.692431040981	0.0499601615592837	120235
120.335	50	382	0	0	worm	1836	73	1	stimuli\worm\worm_03s.jpg	2	-1	1	0	worm_03s.jpg	0	0.0	0	279.742469709134	279.792453764006	0.0499840548727661	120335
120.435	50	383	0	0	wagon	1772	74	1	stimuli\wagon\wagon_12s.jpg	11	-1	1	0	wagon_12s.jpg	0	0.0	0	279.842473171244	279.892436989932	0.0499638186884113	120435
120.535	50	384	0	0	hockey_stick	783	75	1	stimuli\hockey_stick\hockey_stick_04s.jpg	3	-1	1	0	hockey_stick_04s.jpg	0	0.0	0	279.942476877128	279.992457762477	0.0499808853492141	120535
120.635	50	385	0	0	snake	1477	76	1	stimuli\snake\snake_11s.jpg	10	-1	1	0	snake_11s.jpg	0	0.0	0	280.042477901152	280.092458055064	0.049980153911747004	120635
120.735	50	386	0	0	marmalade	976	77	1	stimuli\marmalade\marmalade_04s.jpg	3	-1	1	0	marmalade_04s.jpg	0	0.0	0	280.14250818220904	280.192444938119	0.0499367559095845	120735
120.835	50	387	0	0	wax	1795	78	1	stimuli\wax\wax_03s.jpg	2	-1	1	0	wax_03s.jpg	0	0.0	0	280.242486044357	280.292447912623	0.0499618682661094	120835
120.935	50	388	0	0	cardboard	272	79	1	stimuli\cardboard\cardboard_04s.jpg	3	-1	1	0	cardboard_04s.jpg	0	0.0	0	280.342469514115	280.392449424195	0.0499799100798555	120935
121.035	50	389	0	0	pudding	1246	80	1	stimuli\pudding\pudding_12s.jpg	11	-1	1	0	pudding_12s.jpg	0	0.0	0	280.44248736091	280.492453617742	0.0499662568327039	121035
121.135	50	390	0	0	trident	1712	81	1	stimuli\trident\trident_06s.jpg	5	-1	1	0	trident_06s.jpg	0	0.0	0	280.542492042063	280.592470733158	0.0499786910950206	121135
121.235	50	391	0	0	string_cheese	1573	82	1	stimuli\string_cheese\string_cheese_01b.jpg	0	-1	1	0	string_cheese_01b.jpg	0	0.0	0	280.642488433688	280.692472000956	0.0499835672671907	121235
121.335	50	392	0	0	sandcastle	1355	83	1	stimuli\sandcastle\sandcastle_05s.jpg	4	-1	1	0	sandcastle_05s.jpg	0	0.0	0	280.742495796701	280.792474731628	0.0499789349269122	121335
121.435	50	393	0	0	space_shuttle	1501	84	1	stimuli\space_shuttle\space_shuttle_09s.jpg	8	-1	1	0	space_shuttle_09s.jpg	0	0.0	0	280.842492188327	280.892475267989	0.0499830796616152	121435
121.535	50	394	0	0	hobbyhorse	782	85	1	stimuli\hobbyhorse\hobbyhorse_11s.jpg	10	-1	1	0	hobbyhorse_11s.jpg	0	0.0	0	280.942496381875	280.99247970531	0.0499833234352991	121535
121.635	50	395	0	0	wrist	1842	86	1	stimuli\wrist\wrist_02s.jpg	1	-1	1	0	wrist_02s.jpg	0	0.0	0	281.042503013508	281.092488531198	0.0499855176894926	121635
121.735	50	396	0	0	tadpole	1614	87	1	stimuli\tadpole\tadpole_09s.jpg	8	-1	1	0	tadpole_09s.jpg	0	0.0	0	281.14250476891203	281.192487117136	0.0499823482241482	121735
121.835	50	397	0	0	petal	1158	88	1	stimuli\petal\petal_03s.jpg	2	-1	1	0	petal_03s.jpg	0	0.0	0	281.242505305272	281.292492042063	0.0499867367907427	121835
121.935	50	398	0	0	purse	1259	89	1	stimuli\purse\purse_04s.jpg	3	-1	1	0	purse_04s.jpg	0	0.0	0	281.342510717863	281.392487702251	0.049976984388195	121935
122.035	50	399	0	0	waterwheel	1794	90	1	stimuli\waterwheel\waterwheel_01b.jpg	0	-1	1	0	waterwheel_01b.jpg	0	0.0	0	281.442508328531	281.492490920529	0.0499825919978321	122035
122.135	50	400	0	0	cauliflower	288	91	1	stimuli\cauliflower\cauliflower_06s.jpg	5	-1	1	0	cauliflower_06s.jpg	0	0.0	0	281.542515935376	281.592494138808	0.0499782034312375	122135
122.235	50	401	0	0	gazelle	666	92	1	stimuli\gazelle\gazelle_01b.jpg	0	-1	1	0	gazelle_01b.jpg	0	0.0	0	281.642517203174	281.692498332355	0.0499811291811056	122235
122.335	50	402	0	0	ravioli	1289	93	1	stimuli\ravioli\ravioli_07s.jpg	6	-1	1	0	ravioli_07s.jpg	0	0.0	0	281.742516032886	281.79249691823503	0.0499808853492141	122335
122.435	50	403	0	0	timer	1661	94	1	stimuli\timer\timer_11s.jpg	10	-1	1	0	timer_11s.jpg	0	0.0	0	281.842521445476	281.89250623178697	0.0499847863102332	122435
122.535	50	404	0	0	headset	769	95	1	stimuli\headset\headset_05s.jpg	4	-1	1	0	headset_05s.jpg	0	0.0	0	281.942520275188	281.992504330061	0.0499840548727661	122535
122.635	50	405	0	0	knife	879	96	1	stimuli\knife\knife_09s.jpg	8	-1	1	0	knife_09s.jpg	0	0.0	0	282.042525200115	282.092506085464	0.0499808853492141	122635
122.735	50	406	0	0	koala	884	97	1	stimuli\koala\koala_10s.jpg	9	-1	1	0	koala_10s.jpg	0	0.0	0	282.14252549270196	282.1925080847	0.0499825919978321	122735
122.835	50	407	0	0	sprouts	1524	98	1	stimuli\sprouts\sprouts_05s.jpg	4	-1	1	0	sprouts_05s.jpg	0	0.0	0	282.242546021414	282.29251300968497	0.049966988270170994	122835
122.935	50	408	0	0	toaster	1666	99	1	stimuli\toaster\toaster_12s.jpg	11	-1	1	0	toaster_12s.jpg	0	0.0	0	282.34253339213296	282.39251110795897	0.049977715825661996	122935
123.035	50	409	0	0	tee	1636	100	1	stimuli\tee\tee_06s.jpg	5	-1	1	0	tee_06s.jpg	0	0.0	0	282.442532465619	282.492518958577	0.0499864929588512	123035
123.135	50	410	0	0	mat	982	101	1	stimuli\mat\mat_04s.jpg	3	-1	1	0	mat_04s.jpg	0	0.0	0	282.54253739060397	282.59251608164	0.049978691036812996	123135
123.235	50	411	0	0	highchair	777	102	1	stimuli\highchair\highchair_08s.jpg	7	-1	1	0	highchair_08s.jpg	0	0.0	0	282.642539389839	282.692521250399	0.049981860560364993	123235
123.335	50	412	0	0	holster	786	103	1	stimuli\holster\holster_12s.jpg	11	-1	1	0	holster_12s.jpg	0	0.0	0	282.742546996684	282.79252568772097	0.049978691036812996	123335
123.435	50	413	0	0	chickpea	325	104	1	stimuli\chickpea\chickpea_05s.jpg	4	-1	1	0	chickpea_05s.jpg	0	0.0	0	282.842545094958	282.89252817462	0.0499830796616152	123435
123.535	50	414	0	0	spaghetti	1503	105	1	stimuli\spaghetti\spaghetti_05s.jpg	4	-1	1	0	spaghetti_05s.jpg	0	0.0	0	282.942548313236	282.992526760499	0.0499784472631291	123535
123.635	50	415	0	0	toolbox	1677	106	1	stimuli\toolbox\toolbox_01b.jpg	0	-1	1	0	toolbox_01b.jpg	0	0.0	0	283.04255006863997	283.09253022261004	0.0499801539699547	123635
123.735	50	416	0	0	dumpling	532	107	1	stimuli\dumpling\dumpling_07s.jpg	6	-1	1	0	dumpling_07s.jpg	0	0.0	0	283.14255353075004	283.19253465993097	0.0499811291811056	123735
123.835	50	417	0	0	float	616	108	1	stimuli\float\float_12s.jpg	11	-1	1	0	float_12s.jpg	0	0.0	0	283.24255796807097	283.292540560127	0.0499825920560397	123835
123.935	50	418	0	0	mongoose	1016	109	1	stimuli\mongoose\mongoose_01b.jpg	0	-1	1	0	mongoose_01b.jpg	0	0.0	0	283.342555334908	283.392541096488	0.0499857615795918	123935
124.035	50	419	0	0	dragonfly	514	110	1	stimuli\dragonfly\dragonfly_04s.jpg	3	-1	1	0	dragonfly_04s.jpg	0	0.0	0	283.44256172271	283.49254163284803	0.0499799101380631	124035
124.135	50	420	0	0	spider	1513	111	1	stimuli\spider\spider_07s.jpg	6	-1	1	1	spider_07s.jpg	0	0.0	0	283.54256518482003	283.592533148301	0.0499679634813219	124135
124.235	50	421	0	0	arugula	40	112	1	stimuli\arugula\arugula_06s.jpg	5	-1	1	0	arugula_06s.jpg	0	0.0	0	283.642564258364	283.692548069404	0.0499838110408746	124235
124.335	50	422	0	0	gallows	653	113	1	stimuli\gallows\gallows_07s.jpg	6	-1	1	0	gallows_07s.jpg	0	0.0	0	283.742571377603	283.792550312472	0.0499789348687045	124335
124.435	50	423	0	0	football	629	114	1	stimuli\football\football_04s.jpg	3	-1	1	0	football_04s.jpg	1	0.30018495366675796	1	283.842571913963	283.892551336437	0.04997942247428	124435
124.535	50	424	0	0	tape_measure	1623	115	1	stimuli\tape_measure\tape_measure_10s.jpg	9	-1	1	0	tape_measure_10s.jpg	0	0.0	0	283.94257342559297	283.99255699286	0.0499835672671907	124535
124.635	50	425	0	0	film	586	116	1	stimuli\film\film_05s.jpg	4	-1	1	0	film_05s.jpg	0	0.0	0	284.042575912434	284.092555091134	0.0499791787005961	124635
124.735	50	426	0	0	cellphone	293	117	1	stimuli\cellphone\cellphone_01b.jpg	0	-1	1	0	cellphone_01b.jpg	0	0.0	0	284.142575229751	284.192549044674	0.0499738149228506	124735
124.835	50	427	0	0	slingshot	1467	118	1	stimuli\slingshot\slingshot_05s.jpg	4	-1	1	0	slingshot_05s.jpg	0	0.0	0	284.242569427122	284.29254689911596	0.0499774719937705	124835
124.935	50	428	0	0	backgammon	48	119	1	stimuli\backgammon\backgammon_07s.jpg	6	-1	1	0	backgammon_07s.jpg	0	0.0	0	284.34256874444003	284.39255011739397	0.0499813729547895	124935
125.035	50	429	0	0	camper	249	120	1	stimuli\camper\camper_08s.jpg	7	-1	1	0	camper_08s.jpg	0	0.0	0	284.442570012237	284.49255796807097	0.0499879558337852	125035
125.135	50	430	0	0	sand	1351	121	1	stimuli\sand\sand_02s.jpg	1	-1	1	0	sand_02s.jpg	0	0.0	0	284.54257835052005	284.592556310177	0.0499779596575536	125135
125.235	50	431	0	0	radio	1273	122	1	stimuli\radio\radio_08s.jpg	7	-1	1	0	radio_08s.jpg	0	0.0	0	284.642574985977	284.692575619847	0.0500006338697858	125235
125.335	50	432	0	0	lectern	908	123	1	stimuli\lectern\lectern_07s.jpg	6	-1	1	0	lectern_07s.jpg	0	0.0	0	284.742579667072	284.792561771523	0.0499821044504642	125335
125.435	50	433	0	0	dolphin	502	124	1	stimuli\dolphin\dolphin_01b.jpg	0	-1	1	0	dolphin_01b.jpg	0	0.0	0	284.842609704414	284.89256864693	0.0499589425162412	125435
125.535	50	434	0	0	snowman	1482	125	1	stimuli\snowman\snowman_09s.jpg	8	-1	1	0	snowman_09s.jpg	0	0.0	0	284.942604145559	284.992585762346	0.0499816167866811	125535
125.635	50	435	0	0	basil	81	126	1	stimuli\basil\basil_07s.jpg	6	-1	1	0	basil_07s.jpg	0	0.0	0	285.04261175240396	285.092589955835	0.0499782034312375	125635
125.735	50	436	0	0	cash_machine	279	127	1	stimuli\cash_machine\cash_machine_09s.jpg	8	-1	1	0	cash_machine_09s.jpg	0	0.0	0	285.142613507807	285.192588541773	0.0499750339658931	125735
125.835	50	437	0	0	hot_chocolate	803	128	1	stimuli\hot_chocolate\hot_chocolate_07s.jpg	6	-1	1	0	hot_chocolate_07s.jpg	0	0.0	0	285.242624040344	285.292582007649	0.0499579673050903	125835
125.935	50	438	0	0	antenna	27	129	1	stimuli\antenna\antenna_03n.jpg	2	-1	1	0	antenna_03n.jpg	0	0.0	0	285.34261604340304	285.392595709767	0.0499796663643792	125935
126.035	50	439	0	0	match	983	130	1	stimuli\match\match_10s.jpg	9	-1	1	0	match_10s.jpg	0	0.0	0	285.442617798864	285.492599903257	0.0499821043922566	126035
126.135	50	440	0	0	overalls	1090	131	1	stimuli\overalls\overalls_04s.jpg	3	-1	1	0	overalls_04s.jpg	0	0.0	0	285.542628087627	285.592585323495	0.0499572358676232	126135
126.235	50	441	0	0	penlight	1147	132	1	stimuli\penlight\penlight_07s.jpg	6	-1	1	0	penlight_07s.jpg	0	0.0	0	285.642609606846	285.69260268268397	0.0499930758378468	126235
126.335	50	442	0	0	trough	1718	133	1	stimuli\trough\trough_11s.jpg	10	-1	1	0	trough_11s.jpg	0	0.0	0	285.742626722262	285.792609558091	0.0499828358297236	126335
126.435	50	443	0	0	doily	498	134	1	stimuli\doily\doily_11s.jpg	10	-1	1	0	doily_11s.jpg	0	0.0	0	285.842632378626	285.892607412592	0.0499750339658931	126435
126.535	50	444	0	0	swab	1590	135	1	stimuli\swab\swab_07s.jpg	6	-1	1	0	swab_07s.jpg	0	0.0	0	285.942621455994	285.992611849913	0.0499903939198703	126535
126.635	50	445	0	0	tripod	1714	136	1	stimuli\tripod\tripod_11s.jpg	10	-1	1	0	tripod_11s.jpg	0	0.0	0	286.042656857113	286.092614092981	0.0499572358676232	126635
126.735	50	446	0	0	turbine	1731	137	1	stimuli\turbine\turbine_09s.jpg	8	-1	1	0	turbine_09s.jpg	0	0.0	0	286.142620578292	286.192607802688	0.0499872243963182	126735
126.835	50	447	0	0	minivan	1003	138	1	stimuli\minivan\minivan_06s.jpg	5	-1	1	0	minivan_06s.jpg	0	0.0	0	286.24263891275	286.292619554268	0.0499806415173225	126835
126.935	50	448	0	0	eggbeater	548	139	1	stimuli\eggbeater\eggbeater_05s.jpg	4	-1	1	0	eggbeater_05s.jpg	0	0.0	0	286.342640911986	286.39262033446	0.04997942247428	126935
127.035	50	449	0	0	cherry	316	140	1	stimuli\cherry\cherry_11s.jpg	10	-1	1	0	cherry_11s.jpg	0	0.0	0	286.442642667389	286.49260868039	0.0499660130008124	127035
127.135	50	450	0	0	filing_cabinet	585	141	1	stimuli\filing_cabinet\filing_cabinet_06s.jpg	5	-1	1	0	filing_cabinet_06s.jpg	0	0.0	0	286.542631013319	286.592610192019	0.0499791787005961	127135
127.235	50	451	0	0	shell3	1419	142	1	stimuli\shell3\shell3_05s.jpg	4	-1	1	0	shell3_05s.jpg	0	0.0	0	286.642652761075	286.692618774076	0.0499660130008124	127235
127.335	50	452	0	0	mitten	1008	143	1	stimuli\mitten\mitten_11s.jpg	10	-1	1	0	mitten_11s.jpg	0	0.0	0	286.742651834618	286.792613946658	0.0499621120397933	127335
127.435	50	453	0	0	puck	1245	144	1	stimuli\puck\puck_02s.jpg	1	-1	1	0	puck_02s.jpg	0	0.0	0	286.842636035755	286.89261814020597	0.0499821044504642	127435
127.535	50	454	0	0	marble	972	145	1	stimuli\marble\marble_01b.jpg	0	-1	1	0	marble_01b.jpg	0	0.0	0	286.942658271175	286.992636474664	0.0499782034894451	127535
127.635	50	455	0	0	straightjacket	1565	146	1	stimuli\straightjacket\straightjacket_05s.jpg	4	-1	1	0	straightjacket_05s.jpg	0	0.0	0	287.042658807535	287.092625064368	0.0499662568327039	127635
127.735	50	456	0	0	rocket	1320	147	1	stimuli\rocket\rocket_09s.jpg	8	-1	1	0	rocket_09s.jpg	0	0.0	0	287.142660075391	287.19264949404203	0.0499894186505117	127735
127.835	50	457	0	0	powder	1236	148	1	stimuli\powder\powder_03s.jpg	2	-1	1	0	powder_03s.jpg	0	0.0	0	287.242666219361	287.292642716144	0.0499764967826195	127835
127.935	50	458	0	0	calf2	242	149	1	stimuli\calf2\calf2_05s.jpg	4	-1	1	0	calf2_05s.jpg	0	0.0	0	287.342648713849	287.39263106207403	0.0499823482241482	127935
128.035	50	459	0	0	apron	33	150	1	stimuli\apron\apron_07s.jpg	6	-1	1	0	apron_07s.jpg	0	0.0	0	287.442688259704	287.492648177489	0.0499599177855998	128035
128.135	50	460	0	0	cane	258	151	1	stimuli\cane\cane_06n.jpg	5	-1	1	0	cane_06n.jpg	0	0.0	0	287.542672948504	287.592636035755	0.0499630872509442	128135
128.235	50	461	0	0	flipper	615	152	1	stimuli\flipper\flipper_04s.jpg	3	-1	1	0	flipper_04s.jpg	0	0.0	0	287.642672753427	287.692646812124	0.0499740586965345	128235
128.335	50	462	0	0	ferret	578	153	1	stimuli\ferret\ferret_11s.jpg	10	-1	1	0	ferret_11s.jpg	0	0.0	0	287.742679385061	287.79266051424196	0.0499811291811056	128335
128.435	50	463	0	0	top_hat	1682	154	1	stimuli\top_hat\top_hat_12s.jpg	11	-1	1	0	top_hat_12s.jpg	0	0.0	0	287.842680165253	287.892648372508	0.0499682072550058	128435
128.535	50	464	0	0	goldfish	688	155	1	stimuli\goldfish\goldfish_01b.jpg	0	-1	1	0	goldfish_01b.jpg	0	0.0	0	287.942679970176	287.992658905103	0.0499789349269122	128535
128.635	50	465	0	0	soda	1490	156	1	stimuli\soda\soda_08s.jpg	7	-1	1	0	soda_08s.jpg	0	0.0	0	288.04266197705897	288.092659929069	0.0499979520100169	128635
128.735	50	466	0	0	flamethrower	607	157	1	stimuli\flamethrower\flamethrower_07s.jpg	6	-1	1	0	flamethrower_07s.jpg	0	0.0	0	288.142679336306	288.192668754957	0.0499894186505117	128735
128.835	50	467	0	0	yacht	1844	158	1	stimuli\yacht\yacht_11s.jpg	10	-1	1	0	yacht_11s.jpg	0	0.0	0	288.242684992671	288.292666609457	0.0499816167866811	128835
128.935	50	468	0	0	bag	54	159	1	stimuli\bag\bag_12s.jpg	11	-1	1	0	bag_12s.jpg	0	0.0	0	288.342688698554	288.39266690204397	0.0499782034894451	128935
129.035	50	469	0	0	lunchbox	950	160	1	stimuli\lunchbox\lunchbox_08s.jpg	7	-1	1	0	lunchbox_08s.jpg	0	0.0	0	288.442688503535	288.49267085176	0.0499823482241482	129035
129.135	50	470	0	0	streetlight	1571	161	1	stimuli\streetlight\streetlight_05s.jpg	4	-1	1	0	streetlight_05s.jpg	0	0.0	0	288.542692940857	288.592672607163	0.0499796663061716	129135
129.235	50	471	0	0	taillight	1617	162	1	stimuli\taillight\taillight_08s.jpg	7	-1	1	0	taillight_08s.jpg	0	0.0	0	288.642677141994	288.69265875878	0.0499816167866811	129235
129.335	50	472	0	0	poinsettia	1209	163	1	stimuli\poinsettia\poinsettia_04s.jpg	3	-1	1	0	poinsettia_04s.jpg	0	0.0	0	288.742695476452	288.792676118028	0.0499806415755302	129335
129.435	50	473	0	0	tile	1660	164	1	stimuli\tile\tile_08s.jpg	7	-1	1	0	tile_08s.jpg	0	0.0	0	288.842696500476	288.892664707731	0.0499682072550058	129435
129.535	50	474	0	0	bark	74	165	1	stimuli\bark\bark_09s.jpg	8	-1	1	0	bark_09s.jpg	0	0.0	0	288.942701913009	288.992665975529	0.0499640625203028	129535
129.635	50	475	0	0	air_mattress	5	166	1	stimuli\air_mattress\air_mattress_02s.jpg	1	-1	1	0	air_mattress_02s.jpg	0	0.0	0	289.04271195794	289.092684309988	0.0499723520479165	129635
129.735	50	476	0	0	drawer	516	167	1	stimuli\drawer\drawer_11s.jpg	10	-1	1	0	drawer_11s.jpg	0	0.0	0	289.142688357213	289.19269021018397	0.050001852971035994	129735
129.835	50	477	0	0	pear	1133	168	1	stimuli\pear\pear_10s.jpg	9	-1	1	0	pear_10s.jpg	0	0.0	0	289.242735948763	289.292696841818	0.0499608930549584	129835
129.935	50	478	0	0	windowsill	1819	169	1	stimuli\windowsill\windowsill_06s.jpg	5	-1	1	0	windowsill_06s.jpg	0	0.0	0	289.342700645211	289.392683237267	0.0499825920560397	129935
130.035	50	479	0	0	bun	220	170	1	stimuli\bun\bun_11s.jpg	10	-1	1	0	bun_11s.jpg	0	0.0	0	289.442727025365	289.49270035262504	0.0499733272590674	130035
130.135	50	480	0	0	paperweight	1117	171	1	stimuli\paperweight\paperweight_05s.jpg	4	-1	1	0	paperweight_05s.jpg	0	0.0	0	289.542729024601	289.592701864254	0.049972839653492	130135
130.235	50	481	0	0	comic_book	391	172	1	stimuli\comic_book\comic_book_06s.jpg	5	-1	1	0	comic_book_06s.jpg	0	0.0	0	289.64272297814	289.69270508253203	0.0499821043922566	130235
130.335	50	482	0	0	appetizer	29	173	1	stimuli\appetizer\appetizer_08s.jpg	7	-1	1	1	appetizer_08s.jpg	0	0.0	0	289.74272717163	289.792744872218	0.0500177005887963	130335
130.435	50	483	0	0	siren	1448	174	1	stimuli\siren\siren_06s.jpg	5	-1	1	0	siren_06s.jpg	0	0.0	0	289.84272965852904	289.89271054387797	0.0499808853492141	130435
130.535	50	484	0	0	kitten	875	175	1	stimuli\kitten\kitten_12s.jpg	11	-1	1	0	kitten_12s.jpg	0	0.0	0	289.942734583456	289.992710836465	0.0499762530089356	130535
130.635	50	485	0	0	pom-pom	1218	176	1	stimuli\pom-pom\pom-pom_06s.jpg	5	-1	1	0	pom-pom_06s.jpg	1	0.292167532083113	1	290.042755356	290.09271551756	0.0499601615592837	130635
130.735	50	486	0	0	pinball	1178	177	1	stimuli\pinball\pinball_09s.jpg	8	-1	1	0	pinball_09s.jpg	0	0.0	0	290.14273687527697	290.19272093015	0.0499840548727661	130735
130.835	50	487	0	0	recliner	1294	178	1	stimuli\recliner\recliner_06s.jpg	5	-1	1	0	recliner_06s.jpg	0	0.0	0	290.242740581161	290.292723416991	0.0499828358297236	130835
130.935	50	488	0	0	rolling_pin	1328	179	1	stimuli\rolling_pin\rolling_pin_08s.jpg	7	-1	1	0	rolling_pin_08s.jpg	0	0.0	0	290.34274233656504	290.39274492097303	0.050002584408503	130935
131.035	50	489	0	0	measuring_cup	986	180	1	stimuli\measuring_cup\measuring_cup_03s.jpg	2	-1	1	0	measuring_cup_03s.jpg	0	0.0	0	290.442743848194	290.492722539289	0.0499786910950206	131035
131.135	50	490	0	0	honeycomb	789	181	1	stimuli\honeycomb\honeycomb_09s.jpg	8	-1	1	0	honeycomb_09s.jpg	0	0.0	0	290.542747554078	290.592718199478	0.0499706453992985	131135
131.235	50	491	0	0	marijuana	974	182	1	stimuli\marijuana\marijuana_04s.jpg	3	-1	1	0	marijuana_04s.jpg	0	0.0	0	290.64274930953997	290.692742872983	0.0499935634434223	131235
131.335	50	492	0	0	hot-water_bottle	802	183	1	stimuli\hot-water_bottle\hot-water_bottle_02s.jpg	1	-1	1	0	hot-water_bottle_02s.jpg	0	0.0	0	290.742749114463	290.792736582691	0.0499874682282098	131335
131.435	50	493	0	0	turnstile	1734	184	1	stimuli\turnstile\turnstile_02s.jpg	1	-1	1	0	turnstile_02s.jpg	0	0.0	0	290.842738923267	290.89273419336	0.0499952700920403	131435
131.535	50	494	0	0	scraper	1387	185	1	stimuli\scraper\scraper_08s.jpg	7	-1	1	0	scraper_08s.jpg	0	0.0	0	290.942740922503	290.992780809698	0.05003988719545299	131535
131.635	50	495	0	0	speedometer	1512	186	1	stimuli\speedometer\speedometer_07s.jpg	6	-1	1	0	speedometer_07s.jpg	0	0.0	0	291.042763401696	291.092738923267	0.0499755215714686	131635
131.735	50	496	0	0	vulture	1768	187	1	stimuli\vulture\vulture_04s.jpg	3	-1	1	0	vulture_04s.jpg	0	0.0	0	291.14276003715304	291.19272580632196	0.0499657691689208	131735
131.835	50	497	0	0	fly	621	188	1	stimuli\fly\fly_08s.jpg	7	-1	1	0	fly_08s.jpg	0	0.0	0	291.242765937292	291.292730487476	0.049964550184086	131835
131.935	50	498	0	0	walker1	1773	189	1	stimuli\walker1\walker1_02s.jpg	1	-1	1	0	walker1_02s.jpg	0	0.0	0	291.342750138487	291.392745896184	0.0499957576976158	131935
132.035	50	499	0	0	trigger	1713	190	1	stimuli\trigger\trigger_10s.jpg	9	-1	1	0	trigger_10s.jpg	0	0.0	0	291.442770911031	291.49275277165003	0.0499818606185727	132035
132.135	50	500	0	0	pizza	1192	191	1	stimuli\pizza\pizza_05s.jpg	4	-1	1	0	pizza_05s.jpg	0	0.0	0	291.5427685217	291.59273819183	0.0499696701299399	132135
132.235	50	501	0	0	shopping_cart	1428	192	1	stimuli\shopping_cart\shopping_cart_12s.jpg	11	-1	1	0	shopping_cart_12s.jpg	0	0.0	0	291.642775884713	291.69275335676497	0.0499774720519781	132235
132.335	50	502	0	0	rollerskate	1327	193	1	stimuli\rollerskate\rollerskate_01b.jpg	0	-1	1	0	rollerskate_01b.jpg	0	0.0	0	291.742777640175	291.792749016953	0.0499713767785579	132335
132.435	50	503	0	0	vent	1758	194	1	stimuli\vent\vent_01b.jpg	0	-1	1	0	vent_01b.jpg	0	0.0	0	291.842777201324	291.89274297049303	0.0499657691689208	132435
132.535	50	504	0	0	fossil	636	195	1	stimuli\fossil\fossil_09s.jpg	8	-1	1	0	fossil_09s.jpg	0	0.0	0	291.942783101462	291.992767643998	0.0499845425365493	132535
132.635	50	505	0	0	cello	292	196	1	stimuli\cello\cello_03s.jpg	2	-1	1	0	cello_03s.jpg	0	0.0	0	292.04278388165403	292.092772568925	0.0499886872712523	132635
132.735	50	506	0	0	chocolate	338	197	1	stimuli\chocolate\chocolate_03s.jpg	2	-1	1	0	chocolate_03s.jpg	0	0.0	0	292.14277564093896	292.192770179594	0.0499945386545733	132735
132.835	50	507	0	0	mashed_potato	979	198	1	stimuli\mashed_potato\mashed_potato_11s.jpg	10	-1	1	0	mashed_potato_11s.jpg	0	0.0	0	292.242786661081	292.29277095978597	0.0499842987046577	132835
132.935	50	508	0	0	uniform	1747	199	1	stimuli\uniform\uniform_10s.jpg	9	-1	1	0	uniform_10s.jpg	0	0.0	0	292.342775494617	292.392771739978	0.0499962453613989	132935
133.035	50	509	0	0	mop	1019	200	1	stimuli\mop\mop_09s.jpg	8	-1	1	0	mop_09s.jpg	0	0.0	0	292.442781882419	292.492765205912	0.0499833234935068	133035
133.135	50	510	0	0	glass	677	201	1	stimuli\glass\glass_01b.jpg	0	-1	1	0	glass_01b.jpg	0	0.0	0	292.542795096873	292.59277671366	0.0499816167866811	133135
133.235	50	511	0	0	pallet	1101	202	1	stimuli\pallet\pallet_11s.jpg	10	-1	1	0	pallet_11s.jpg	0	0.0	0	292.642797583772	292.692783589126	0.0499860053532757	133235
133.335	50	512	0	0	cheesecake	314	203	1	stimuli\cheesecake\cheesecake_12s.jpg	11	-1	1	0	cheesecake_12s.jpg	0	0.0	0	292.74280421534803	292.79276315792197	0.0499589425744489	133335
133.435	50	513	0	0	keyhole	871	204	1	stimuli\keyhole\keyhole_06s.jpg	5	-1	1	0	keyhole_06s.jpg	0	0.0	0	292.84278744127397	292.892784174241	0.0499967329669744	133435
133.535	50	514	0	0	playing_card	1199	205	1	stimuli\playing_card\playing_card_02s.jpg	1	-1	1	0	playing_card_02s.jpg	0	0.0	0	292.942807726213	292.992791049648	0.0499833234352991	133535
133.635	50	515	0	0	pants	1108	206	1	stimuli\pants\pants_10s.jpg	9	-1	1	0	pants_10s.jpg	0	0.0	0	293.042808750237	293.09277208132005	0.0499633310828358	133635
133.735	50	516	0	0	torso	1685	207	1	stimuli\torso\torso_02s.jpg	1	-1	1	0	torso_02s.jpg	0	0.0	0	293.142811480851	293.192791634821	0.0499801539699547	133735
133.835	50	517	0	0	blind	140	208	1	stimuli\blind\blind_06s.jpg	5	-1	1	0	blind_06s.jpg	0	0.0	0	293.242802264867	293.292772666435	0.04997040156740701	133835
133.935	50	518	0	0	dalmatian	471	209	1	stimuli\dalmatian\dalmatian_11s.jpg	10	-1	1	0	dalmatian_11s.jpg	0	0.0	0	293.34279402415297	293.39277393429103	0.0499799101380631	133935
134.035	50	519	0	0	egg_roll	547	210	1	stimuli\egg_roll\egg_roll_09n.jpg	8	-1	1	0	egg_roll_09n.jpg	0	0.0	0	293.44279529195	293.492807872477	0.050012580526527	134035
134.135	50	520	0	0	bow1	174	211	1	stimuli\bow1\bow1_07s.jpg	6	-1	1	0	bow1_07s.jpg	0	0.0	0	293.542819234019	293.592786466063	0.0499672320438549	134135
134.235	50	521	0	0	bird	128	212	1	stimuli\bird\bird_09s.jpg	8	-1	1	0	bird_09s.jpg	0	0.0	0	293.642824890383	293.692789196735	0.0499643063521944	134235
134.335	50	522	0	0	badge	52	213	1	stimuli\badge\badge_06s.jpg	5	-1	1	0	badge_06s.jpg	0	0.0	0	293.742810310621	293.79278680740396	0.0499764967826195	134335
134.435	50	523	0	0	go-kart	682	214	1	stimuli\go-kart\go-kart_01b.jpg	0	-1	1	0	go-kart_01b.jpg	0	0.0	0	293.84283035172797	293.89279319520597	0.0499628434772603	134435
134.535	50	524	0	0	scaffolding	1370	215	1	stimuli\scaffolding\scaffolding_02s.jpg	1	-1	1	0	scaffolding_02s.jpg	0	0.0	0	293.94283381378	293.99281055439496	0.0499767406145111	134535
134.635	50	525	0	0	router	1336	216	1	stimuli\router\router_11s.jpg	10	-1	1	0	router_11s.jpg	0	0.0	0	294.042832887324	294.092798168887	0.0499652815633453	134635
134.735	50	526	0	0	ink	829	217	1	stimuli\ink\ink_10s.jpg	9	-1	1	0	ink_10s.jpg	0	0.0	0	294.14283732464503	294.19280650717	0.0499691825243644	134735
134.835	50	527	0	0	metal_detector	996	218	1	stimuli\metal_detector\metal_detector_07s.jpg	6	-1	1	0	metal_detector_07s.jpg	0	0.0	0	294.242838104838	294.292820940667	0.0499828358297236	134835
134.935	50	528	0	0	bead	100	219	1	stimuli\bead\bead_05s.jpg	4	-1	1	0	bead_05s.jpg	0	0.0	0	294.342843761202	294.392824158946	0.0499803977436386	134935
135.035	50	529	0	0	candelabra	252	220	1	stimuli\candelabra\candelabra_07s.jpg	6	-1	1	0	candelabra_07s.jpg	0	0.0	0	294.442844785226	294.492823476263	0.049978691036812996	135035
135.135	50	530	0	0	can	250	221	1	stimuli\can\can_04s.jpg	3	-1	1	0	can_04s.jpg	0	0.0	0	294.54282849875705	294.592811090755	0.0499825919978321	135135
135.235	50	531	0	0	stained_glass	1531	222	1	stimuli\stained_glass\stained_glass_08s.jpg	7	-1	1	0	stained_glass_08s.jpg	0	0.0	0	294.64283244847303	294.69283600809297	0.050003559619654005	135235
135.335	50	532	0	0	puppy	1258	223	1	stimuli\puppy\puppy_05s.jpg	4	-1	1	0	puppy_05s.jpg	0	0.0	0	294.742852733412	294.792814114015	0.0499613806023262	135335
135.435	50	533	0	0	bush	227	224	1	stimuli\bush\bush_04s.jpg	3	-1	1	0	bush_04s.jpg	0	0.0	0	294.842853025941	294.89281757612497	0.049964550184086	135435
135.535	50	534	0	0	carousel	275	225	1	stimuli\carousel\carousel_03s.jpg	2	-1	1	0	carousel_03s.jpg	0	0.0	0	294.942849173793	294.99282981531	0.0499806415173225	135535
135.635	50	535	0	0	first-aid_kit	599	226	1	stimuli\first-aid_kit\first-aid_kit_04s.jpg	3	-1	1	0	first-aid_kit_04s.jpg	0	0.0	0	295.04285141680197	295.09282913268504	0.0499777158838697	135635
135.735	50	536	0	0	lanyard	896	227	1	stimuli\lanyard\lanyard_11s.jpg	10	-1	1	0	lanyard_11s.jpg	0	0.0	0	295.142852684658	295.192832594737	0.0499799100798555	135735
135.835	50	537	0	0	chaps	306	228	1	stimuli\chaps\chaps_10s.jpg	9	-1	1	0	chaps_10s.jpg	0	0.0	0	295.242857121979	295.292834593973	0.0499774719937705	135835
135.935	50	538	0	0	cocktail	374	229	1	stimuli\cocktail\cocktail_04s.jpg	3	-1	1	0	cocktail_04s.jpg	0	0.0	0	295.342855707859	295.392836105602	0.0499803977436386	135935
136.035	50	539	0	0	tree	1708	230	1	stimuli\tree\tree_12s.jpg	11	-1	1	0	tree_12s.jpg	0	0.0	0	295.442859657574	295.492841761967	0.0499821043922566	136035
136.135	50	540	0	0	coffee_filter	379	231	1	stimuli\coffee_filter\coffee_filter_03s.jpg	2	-1	1	0	coffee_filter_03s.jpg	0	0.0	0	295.542866289208	295.592846199288	0.0499799100798555	136135
136.235	50	541	0	0	ticktacktoe	1657	232	1	stimuli\ticktacktoe\ticktacktoe_04s.jpg	3	-1	1	0	ticktacktoe_04s.jpg	0	0.0	0	295.642862437002	295.692848442355	0.0499860053532757	136235
136.335	50	542	0	0	tortilla	1687	233	1	stimuli\tortilla\tortilla_10s.jpg	9	-1	1	0	tortilla_10s.jpg	0	0.0	0	295.742868093366	295.79285044159	0.0499823482241482	136335
136.435	50	543	0	0	blazer	137	234	1	stimuli\blazer\blazer_01b.jpg	0	-1	1	0	blazer_01b.jpg	0	0.0	0	295.842872530688	295.89284902747	0.0499764967826195	136435
136.535	50	544	0	0	radish	1274	235	1	stimuli\radish\radish_10s.jpg	9	-1	1	0	radish_10s.jpg	0	0.0	0	295.942875017528	295.992857121979	0.0499821044504642	136535
136.635	50	545	0	0	cream	436	236	1	stimuli\cream\cream_06s.jpg	5	-1	1	0	cream_06s.jpg	0	0.0	0	296.04287433490396	296.092855464085	0.0499811291811056	136635
136.735	50	546	0	0	bathmat	89	237	1	stimuli\bathmat\bathmat_07s.jpg	6	-1	1	0	bathmat_07s.jpg	0	0.0	0	296.142880478874	296.19286087661703	0.0499803977436386	136735
136.835	50	547	0	0	pedometer	1137	238	1	stimuli\pedometer\pedometer_09s.jpg	8	-1	1	0	pedometer_09s.jpg	0	0.0	0	296.242881259066	296.29286141297797	0.049980153911747004	136835
136.935	50	548	0	0	skull	1458	239	1	stimuli\skull\skull_06s.jpg	5	-1	1	0	skull_06s.jpg	0	0.0	0	296.34288228309	296.39286121795897	0.0499789348687045	136935
137.035	50	549	0	0	helmet	776	240	1	stimuli\helmet\helmet_10s.jpg	9	-1	1	0	helmet_10s.jpg	0	0.0	0	296.442884282325	296.49286858097196	0.049984298646449994	137035
137.135	50	550	0	0	sparkler	1507	241	1	stimuli\sparkler\sparkler_08s.jpg	7	-1	1	0	sparkler_08s.jpg	0	0.0	0	296.54288652533404	296.592866923078	0.0499803977436386	137135
137.235	50	551	0	0	faucet	573	242	1	stimuli\faucet\faucet_03s.jpg	2	-1	1	0	faucet_03s.jpg	0	0.0	0	296.642891937925	296.692871848063	0.0499799101380631	137235
137.335	50	552	0	0	bell_pepper	117	243	1	stimuli\bell_pepper\bell_pepper_05s.jpg	4	-1	1	0	bell_pepper_05s.jpg	0	0.0	0	296.742894668598	296.792873115861	0.0499784472631291	137335
137.435	50	553	0	0	piecrust	1169	244	1	stimuli\piecrust\piecrust_02s.jpg	1	-1	1	0	piecrust_02s.jpg	0	0.0	0	296.842894717352	296.892876334139	0.0499816167866811	137435
137.535	50	554	0	0	sawhorse	1367	245	1	stimuli\sawhorse\sawhorse_02s.jpg	1	-1	1	0	sawhorse_02s.jpg	0	0.0	0	296.942897204193	296.992883453378	0.0499862491851673	137535
137.635	50	555	0	0	seagull	1395	246	1	stimuli\seagull\seagull_12s.jpg	11	-1	1	0	seagull_12s.jpg	0	0.0	0	297.042904079601	297.092882526864	0.0499784472631291	137635
137.735	50	556	0	0	ice	816	247	1	stimuli\ice\ice_09s.jpg	8	-1	1	0	ice_09s.jpg	0	0.0	0	297.142903153144	297.192883794662	0.0499806415173225	137735
137.835	50	557	0	0	steak	1544	248	1	stimuli\steak\steak_06s.jpg	5	-1	1	0	steak_06s.jpg	0	0.0	0	297.24290710286	297.29288750060397	0.0499803977436386	137835
137.935	50	558	0	0	stuffing	1575	249	1	stimuli\stuffing\stuffing_08s.jpg	7	-1	1	0	stuffing_08s.jpg	0	0.0	0	297.34290666400904	297.392894619843	0.0499879558337852	137935
138.035	50	559	0	0	amplifier	20	250	1	stimuli\amplifier\amplifier_08s.jpg	7	-1	1	0	amplifier_08s.jpg	0	0.0	0	297.442913539417	297.492890280031	0.0499767406145111	138035
138.135	50	560	0	0	sink	1447	251	1	stimuli\sink\sink_01b.jpg	0	-1	1	0	sink_01b.jpg	0	0.0	0	297.542917976738	297.592892035434	0.0499740586965345	138135
138.235	50	561	0	0	bracelet1	187	252	1	stimuli\bracelet1\bracelet1_12s.jpg	11	-1	1	0	bracelet1_12s.jpg	0	0.0	0	297.642916318844	297.69289598515	0.0499796663061716	138235
138.335	50	562	0	0	frog	644	253	1	stimuli\frog\frog_02s.jpg	1	-1	1	0	frog_02s.jpg	0	0.0	0	297.74292051233397	297.792887988209	0.0499674758757465	138335
138.435	50	563	0	0	poster	1229	254	1	stimuli\poster\poster_06s.jpg	5	-1	1	0	poster_06s.jpg	0	0.0	0	297.84291909827203	297.892901446496	0.0499823482241482	138435
138.535	50	564	0	0	milkshake	1002	255	1	stimuli\milkshake\milkshake_01b.jpg	0	-1	1	0	milkshake_01b.jpg	0	0.0	0	297.942922804155	297.99290125141897	0.0499784472631291	138535
138.635	50	565	0	0	skewer	1451	256	1	stimuli\skewer\skewer_03s.jpg	2	-1	1	0	skewer_03s.jpg	0	0.0	0	298.042911881523	298.092913734436	0.0500018529128283	138635
138.735	50	566	0	0	guitar	723	257	1	stimuli\guitar\guitar_11s.jpg	10	-1	1	0	guitar_11s.jpg	0	0.0	0	298.142928996938	298.192907931807	0.0499789348687045	138735
138.835	50	567	0	0	headphones	766	258	1	stimuli\headphones\headphones_09s.jpg	8	-1	1	0	headphones_09s.jpg	0	0.0	0	298.242928070424	298.292907980562	0.0499799101380631	138835
138.935	50	568	0	0	toilet	1670	259	1	stimuli\toilet\toilet_11n.jpg	10	-1	1	0	toilet_11n.jpg	0	0.0	0	298.342933239182	298.392912905489	0.0499796663061716	138935
139.035	50	569	0	0	cassette	283	260	1	stimuli\cassette\cassette_10s.jpg	9	-1	1	0	cassette_10s.jpg	0	0.0	0	298.44293548225	298.492913929513	0.0499784472631291	139035
139.135	50	570	0	0	thimble	1649	261	1	stimuli\thimble\thimble_03n.jpg	2	-1	1	0	thimble_03n.jpg	0	0.0	0	298.542939431965	298.592920073483	0.0499806415173225	139135
139.235	50	571	0	0	chariot	309	262	1	stimuli\chariot\chariot_05s.jpg	4	-1	1	0	chariot_05s.jpg	0	0.0	0	298.642941918806	298.692923047987	0.0499811291811056	139235
139.335	50	572	0	0	photograph	1164	263	1	stimuli\photograph\photograph_03s.jpg	2	-1	1	0	photograph_03s.jpg	0	0.0	0	298.742942698998	298.792927729082	0.0499850300839171	139335
139.435	50	573	0	0	muffin	1035	264	1	stimuli\muffin\muffin_04n.jpg	3	-1	1	0	muffin_04n.jpg	0	0.0	0	298.842947380152	298.892926071188	0.049978691036812996	139435
139.535	50	574	0	0	firecracker	594	265	1	stimuli\firecracker\firecracker_05s.jpg	4	-1	1	0	firecracker_05s.jpg	0	0.0	0	298.942948647949	298.99292758281797	0.0499789348687045	139535
139.635	50	575	0	0	pedal	1136	266	1	stimuli\pedal\pedal_02s.jpg	1	-1	1	0	pedal_02s.jpg	0	0.0	0	299.042956498568	299.092929582053	0.0499730834853835	139635
139.735	50	576	0	0	soda_fountain	1491	267	1	stimuli\soda_fountain\soda_fountain_02s.jpg	1	-1	1	0	soda_fountain_02s.jpg	0	0.0	0	299.142952158756	299.192934263207	0.0499821044504642	139735
139.835	50	577	0	0	radar	1271	268	1	stimuli\radar\radar_02s.jpg	1	-1	1	1	radar_02s.jpg	0	0.0	0	299.242952451343	299.292942113825	0.0499896624824032	139835
139.935	50	578	0	0	crumb	451	269	1	stimuli\crumb\crumb_04s.jpg	3	-1	1	0	crumb_04s.jpg	0	0.0	0	299.34295859537104	299.392942894017	0.049984298646449994	139935
140.035	50	579	0	0	earplug	539	270	1	stimuli\earplug\earplug_08s.jpg	7	-1	1	0	earplug_08s.jpg	0	0.0	0	299.442960106942	299.492939041869	0.0499789349269122	140035
140.135	50	580	0	0	tag	1616	271	1	stimuli\tag\tag_12s.jpg	11	-1	1	0	tag_12s.jpg	1	0.35016218188684395	1	299.542962837615	299.592943722964	0.0499808853492141	140135
140.235	50	581	0	0	peach	1129	272	1	stimuli\peach\peach_04s.jpg	3	-1	1	0	peach_04s.jpg	0	0.0	0	299.642942894017	299.692932800332	0.0499899063142948	140235
140.335	50	582	0	0	detonator	482	273	1	stimuli\detonator\detonator_10s.jpg	9	-1	1	0	detonator_10s.jpg	0	0.0	0	299.742955133261	299.792932849086	0.049977715825661996	140335
140.435	50	583	0	0	drill	520	274	1	stimuli\drill\drill_05s.jpg	4	-1	1	0	drill_05s.jpg	0	0.0	0	299.842982001021	299.89296020451	0.0499782034894451	140435
140.535	50	584	0	0	ferry	580	275	1	stimuli\ferry\ferry_11s.jpg	10	-1	1	0	ferry_11s.jpg	0	0.0	0	299.942964739341	299.992945868522	0.0499811291811056	140535
140.635	50	585	0	0	nightshirt	1058	276	1	stimuli\nightshirt\nightshirt_01b.jpg	0	-1	1	0	nightshirt_01b.jpg	0	0.0	0	300.04299331374904	300.092963715317	0.04997040156740701	140635
140.735	50	586	0	0	spring_roll	1521	277	1	stimuli\spring_roll\spring_roll_02s.jpg	1	-1	1	0	spring_roll_02s.jpg	0	0.0	0	300.142987267289	300.192954986996	0.049967719707638	140735
140.835	50	587	0	0	desk	480	278	1	stimuli\desk\desk_12s.jpg	11	-1	1	0	desk_12s.jpg	0	0.0	0	300.242977076094	300.292972590018	0.0499955139239319	140835
140.935	50	588	0	0	hawk	760	279	1	stimuli\hawk\hawk_08s.jpg	7	-1	1	0	hawk_08s.jpg	0	0.0	0	300.34299541055196	300.392974101589	0.049978691036812996	140935
141.035	50	589	0	0	tent	1643	280	1	stimuli\tent\tent_02s.jpg	1	-1	1	0	tent_02s.jpg	0	0.0	0	300.442996434518	300.492974394176	0.0499779596575536	141035
141.135	50	590	0	0	hopscotch	796	281	1	stimuli\hopscotch\hopscotch_09s.jpg	8	-1	1	0	hopscotch_09s.jpg	0	0.0	0	300.54299965279597	300.59298370766896	0.0499840548727661	141135
141.235	50	591	0	0	tattoo	1629	282	1	stimuli\tattoo\tattoo_03s.jpg	2	-1	1	0	tattoo_03s.jpg	0	0.0	0	300.64299872634	300.692981806002	0.0499830796616152	141235
141.335	50	592	0	0	car_door	268	283	1	stimuli\car_door\car_door_06s.jpg	5	-1	1	0	car_door_06s.jpg	0	0.0	0	300.743002676056	300.792984049011	0.0499813729547895	141335
141.435	50	593	0	0	arrow	38	284	1	stimuli\arrow\arrow_12s.jpg	11	-1	1	0	arrow_12s.jpg	0	0.0	0	300.843003943854	300.89298751112096	0.0499835672671907	141435
141.535	50	594	0	0	gramophone	699	285	1	stimuli\gramophone\gramophone_05s.jpg	4	-1	1	0	gramophone_05s.jpg	0	0.0	0	300.943006186921	300.992986828438	0.0499806415173225	141535
141.635	50	595	0	0	tomato_sauce	1673	286	1	stimuli\tomato_sauce\tomato_sauce_11s.jpg	10	-1	1	0	tomato_sauce_11s.jpg	0	0.0	0	301.042992826144	301.092973467719	0.0499806415755302	141635
141.735	50	596	0	0	piglet	1173	287	1	stimuli\piglet\piglet_12s.jpg	11	-1	1	0	piglet_12s.jpg	0	0.0	0	301.143009210122	301.192991802178	0.0499825920560397	141735
141.835	50	597	0	0	sofa_bed	1492	288	1	stimuli\sofa_bed\sofa_bed_05s.jpg	4	-1	1	0	sofa_bed_05s.jpg	0	0.0	0	301.24301535415003	301.292991607101	0.0499762529507279	141835
141.935	50	598	0	0	slicer	1463	289	1	stimuli\slicer\slicer_03s.jpg	2	-1	1	0	slicer_03s.jpg	0	0.0	0	301.34301589051	301.392997019691	0.0499811291811056	141935
142.035	50	599	0	0	candy	255	290	1	stimuli\candy\candy_09s.jpg	8	-1	1	0	candy_09s.jpg	0	0.0	0	301.443018133577	301.492999994138	0.049981860560364993	142035
142.135	50	600	0	0	mulberry	1037	291	1	stimuli\mulberry\mulberry_08s.jpg	7	-1	1	0	mulberry_08s.jpg	0	0.0	0	301.54302403371497	301.593002480979	0.0499784472631291	142135
142.235	50	601	0	0	trapdoor	1703	292	1	stimuli\trapdoor\trapdoor_04s.jpg	3	-1	1	0	trapdoor_04s.jpg	0	0.0	0	301.64300750347303	301.692989364092	0.0499818606185727	142235
142.335	50	602	0	0	whipped_cream	1810	293	1	stimuli\whipped_cream\whipped_cream_08s.jpg	7	-1	1	0	whipped_cream_08s.jpg	0	0.0	0	301.743026081705	301.79300842992996	0.0499823482241482	142335
142.435	50	603	0	0	dirt_bike	488	294	1	stimuli\dirt_bike\dirt_bike_07s.jpg	6	-1	1	0	dirt_bike_07s.jpg	0	0.0	0	301.843031981902	301.89300872251596	0.0499767406145111	142435
142.535	50	604	0	0	horse	798	295	1	stimuli\horse\horse_03s.jpg	2	-1	1	0	horse_03s.jpg	0	0.0	0	301.943031786883	301.993013159838	0.0499813729547895	142535
142.635	50	605	0	0	typewriter	1741	296	1	stimuli\typewriter\typewriter_02s.jpg	1	-1	1	0	typewriter_02s.jpg	0	0.0	0	302.043035736599	302.09300272481096	0.0499669882119633	142635
142.735	50	606	0	0	swing	1598	297	1	stimuli\swing\swing_05s.jpg	4	-1	1	0	swing_05s.jpg	0	0.0	0	302.143038711045	302.193018864957	0.049980153911747004	142735
142.835	50	607	0	0	gate	662	298	1	stimuli\gate\gate_09s.jpg	8	-1	1	0	gate_09s.jpg	0	0.0	0	302.243037784589	302.29302452137904	0.0499867367907427	142835
142.935	50	608	0	0	scalpel	1374	299	1	stimuli\scalpel\scalpel_06s.jpg	5	-1	1	0	scalpel_06s.jpg	0	0.0	0	302.343048073351	302.39302115677896	0.0499730834271759	142935
143.035	50	609	0	0	ottoman	1086	300	1	stimuli\ottoman\ottoman_08s.jpg	7	-1	1	0	ottoman_08s.jpg	0	0.0	0	302.443044708751	302.493023643619	0.0499789348687045	143035
143.135	50	610	0	0	balloon	60	301	1	stimuli\balloon\balloon_11s.jpg	10	-1	1	0	balloon_11s.jpg	0	0.0	0	302.54304963367804	302.593027349561	0.0499777158838697	143135
