onset	duration	eventnumber	blocksequencenumber	isteststim	object	objectnumber	presentationnumber	sequencenumber	stim	stimnumber	teststimnumber	withinsequencenumber	istarget	stimname	response	rt	correct	time_stimon	time_stimoff	stimdur	sample
163.141	50	0	0	0	snowball	1480	0	0	stimuli\snowball\snowball_03s.jpg	2	-1	0	0	snowball_03s.jpg	0	0.0	0	148.61806715682	148.668051504255	0.0499843474353838	163141
163.241	50	1	0	0	sewage	1405	1	0	stimuli\sewage\sewage_11s.jpg	10	-1	0	0	sewage_11s.jpg	0	0.0	0	148.718072666914	148.768048968637	0.0499763017232908	163241
163.341	50	2	0	0	tack	1611	2	0	stimuli\tack\tack_04s.jpg	3	-1	0	0	tack_04s.jpg	0	0.0	0	148.818067937011	148.868053259683	0.0499853226720006	163341
163.441	50	3	0	0	straw2	1569	3	0	stimuli\straw2\straw2_12s.jpg	11	-1	0	0	straw2_12s.jpg	0	0.0	0	148.918074909961	148.968044872638	0.0499699626761867	163441
163.541	50	4	0	0	weed	1802	4	0	stimuli\weed\weed_10s.jpg	9	-1	0	0	weed_10s.jpg	0	0.0	0	149.018070911487	149.0680469694	0.0499760579132271	163541
163.641	50	5	0	0	chariot	309	5	0	stimuli\chariot\chariot_07s.jpg	6	-1	0	0	chariot_07s.jpg	0	0.0	0	149.118064718727	149.168754406855	0.0506896881288412	163641
163.741	50	6	0	0	dumpling	532	6	0	stimuli\dumpling\dumpling_06s.jpg	5	-1	0	0	dumpling_06s.jpg	0	0.0	0	149.218086320243	149.268059940061	0.0499736198180472	163741
163.841	50	7	0	0	scone	1380	7	0	stimuli\scone\scone_05s.jpg	4	-1	0	0	scone_05s.jpg	0	0.0	0	149.31808110272	149.36806301206002	0.0499819093402039	163841
163.941	50	8	0	0	reindeer	1301	8	0	stimuli\reindeer\reindeer_05s.jpg	4	-1	0	0	reindeer_05s.jpg	0	0.0	0	149.418078323293	149.46804706692302	0.0499687436295062	163941
164.041	50	9	0	0	tweezers	1739	9	0	stimuli\tweezers\tweezers_01b.jpg	0	-1	0	0	tweezers_01b.jpg	0	0.0	0	149.51810797052	149.56808987986	0.0499819093402039	164041
164.141	50	10	0	0	bubble	207	10	0	stimuli\bubble\bubble_06n.jpg	5	-1	0	1	bubble_06n.jpg	0	0.0	0	149.618112992994	149.66807783567302	0.049964842679400996	164141
164.241	50	11	0	0	watch	1786	11	0	stimuli\watch\watch_07s.jpg	6	-1	0	0	watch_07s.jpg	0	0.0	0	149.718114358328	149.768081395292	0.0499670369645173	164241
164.341	50	12	0	0	gem	670	12	0	stimuli\gem\gem_02s.jpg	1	-1	0	0	gem_02s.jpg	0	0.0	0	149.81811621128	149.868101290142	0.0499850788619369	164341
164.441	50	13	0	0	piglet	1173	13	0	stimuli\piglet\piglet_03s.jpg	2	-1	0	0	piglet_03s.jpg	0	0.0	0	149.91811830804	149.96810021738	0.0499819093402039	164441
164.541	50	14	0	0	cigarette_holder	346	14	0	stimuli\cigarette_holder\cigarette_holder_08s.jpg	7	-1	0	0	cigarette_holder_08s.jpg	0	0.0	0	150.018106020045	150.068102070332	0.0499960502875183	164541
164.641	50	15	0	0	bagel	55	15	0	stimuli\bagel\bagel_07s.jpg	6	-1	0	0	bagel_07s.jpg	0	0.0	0	150.118102996807	150.168083199482	0.049980202675214996	164641
164.741	50	16	0	0	jeans	842	16	0	stimuli\jeans\jeans_02s.jpg	1	-1	0	0	jeans_02s.jpg	0	0.0	0	150.218107287854	150.268087246717	0.0499799588633323	164741
164.841	50	17	0	0	ironing_board	833	17	0	stimuli\ironing_board\ironing_board_09s.jpg	8	-1	0	0	ironing_board_09s.jpg	1	0.741905526771006	1	150.318106702711	150.368095438715	0.0499887360037974	164841
164.941	50	18	0	0	board_game	153	18	0	stimuli\board_game\board_game_07s.jpg	6	-1	0	0	board_game_07s.jpg	0	0.0	0	150.41811416328002	150.468094853572	0.0499806902917044	164941
165.041	50	19	0	0	buffet	211	19	0	stimuli\buffet\buffet_10s.jpg	9	-1	0	0	buffet_10s.jpg	0	0.0	0	150.518115040994	150.568099876047	0.0499848350536922	165041
165.141	50	20	0	0	candy_bar	256	20	0	stimuli\candy_bar\candy_bar_01b.jpg	0	-1	0	0	candy_bar_01b.jpg	0	0.0	0	150.618116162517	150.668095146144	0.0499789836267155	165141
165.241	50	21	0	0	gallows	653	21	0	stimuli\gallows\gallows_03s.jpg	2	-1	0	0	gallows_03s.jpg	0	0.0	0	150.718115821184	150.768100900046	0.0499850788619369	165241
165.341	50	22	0	0	maple_syrup	971	22	0	stimuli\maple_syrup\maple_syrup_03s.jpg	2	-1	0	0	maple_syrup_03s.jpg	0	0.0	0	150.818122306515	150.86810226538	0.0499799588651513	165341
165.441	50	23	0	0	pita	1189	23	0	stimuli\pita\pita_09s.jpg	8	-1	0	0	pita_09s.jpg	0	0.0	0	150.918130498512	150.968107287854	0.0499767893415992	165441
165.541	50	24	0	0	lettuce	920	24	0	stimuli\lettuce\lettuce_06n.jpg	5	-1	0	0	lettuce_06n.jpg	0	0.0	0	151.018129669559	151.068110603661	0.0499809341017681	165541
165.641	50	25	0	0	jeep	843	25	0	stimuli\jeep\jeep_09s.jpg	8	-1	0	0	jeep_09s.jpg	0	0.0	0	151.11813639870002	151.168108555663	0.049972156963122	165641
165.741	50	26	0	0	coyote	427	26	0	stimuli\coyote\coyote_05s.jpg	4	-1	0	0	coyote_05s.jpg	0	0.0	0	151.218132887843	151.268110896233	0.0499780083900987	165741
165.841	50	27	0	0	cork	409	27	0	stimuli\cork\cork_12s.jpg	11	-1	0	0	cork_12s.jpg	0	0.0	0	151.318140104604	151.36811591870702	0.0499758141031634	165841
165.941	50	28	0	0	funnel	649	28	0	stimuli\funnel\funnel_08s.jpg	7	-1	0	0	funnel_08s.jpg	0	0.0	0	151.418139519461	151.468120697373	0.0499811779118318	165941
166.041	50	29	0	0	raisin	1280	29	0	stimuli\raisin\raisin_04s.jpg	3	-1	0	0	raisin_04s.jpg	0	0.0	0	151.518141372413	151.568123281753	0.0499819093402039	166041
166.141	50	30	0	0	seagull	1395	30	0	stimuli\seagull\seagull_06s.jpg	5	-1	0	0	seagull_06s.jpg	0	0.0	0	151.618146151077	151.668124647085	0.0499784960084071	166141
166.241	50	31	0	0	gold	687	31	0	stimuli\gold\gold_01b.jpg	0	-1	0	0	gold_01b.jpg	0	0.0	0	151.718142396412	151.768124305752	0.0499819093402039	166241
166.341	50	32	0	0	ginger	673	32	0	stimuli\ginger\ginger_05s.jpg	4	-1	0	0	ginger_05s.jpg	0	0.0	0	151.81814595602899	151.868129572036	0.0499836160070117	166341
166.441	50	33	0	0	kitten	875	33	0	stimuli\kitten\kitten_05s.jpg	4	-1	0	0	kitten_05s.jpg	0	0.0	0	151.918150247076	151.968133619272	0.049983372195129	166441
166.541	50	34	0	0	bracket	189	34	0	stimuli\bracket\bracket_09s.jpg	8	-1	0	0	bracket_09s.jpg	0	0.0	0	152.018156488597	152.06816229126198	0.0500058026646002	166541
166.641	50	35	0	0	rat	1285	35	0	stimuli\rat\rat_11s.jpg	10	-1	0	0	rat_11s.jpg	0	0.0	0	152.118160048216	152.168140250889	0.04998020267339599	166641
166.741	50	36	0	0	noisemaker	1060	36	0	stimuli\noisemaker\noisemaker_11s.jpg	10	-1	0	0	noisemaker_11s.jpg	1	0.0	0	152.218156049741	152.26813795907898	0.0499819093383849	166741
166.841	50	37	0	0	thimble	1649	37	0	stimuli\thimble\thimble_03n.jpg	2	-1	0	0	thimble_03n.jpg	0	0.0	0	152.318164729357	152.36814249393498	0.04997776457821599	166841
166.941	50	38	0	0	tuba	1723	38	0	stimuli\tuba\tuba_08s.jpg	7	-1	0	0	tuba_08s.jpg	0	0.0	0	152.418163656595	152.468142152602	0.0499784960065881	166941
167.041	50	39	0	0	mistletoe	1007	39	0	stimuli\mistletoe\mistletoe_07s.jpg	6	-1	0	0	mistletoe_07s.jpg	0	0.0	0	152.518165021927	152.56814595602899	0.0499809341017681	167041
167.141	50	40	0	0	ink	829	40	0	stimuli\ink\ink_06s.jpg	5	-1	0	0	ink_06s.jpg	0	0.0	0	152.61817150725798	152.668151709933	0.049980202675214996	167141
167.241	50	41	0	0	bookmark	166	41	0	stimuli\bookmark\bookmark_07s.jpg	6	-1	0	0	bookmark_07s.jpg	0	0.0	0	152.718167752593	152.768152831455	0.0499850788619369	167241
167.341	50	42	0	0	couch	422	42	0	stimuli\couch\couch_01b.jpg	0	-1	0	0	couch_01b.jpg	0	0.0	0	152.818173994116	152.868152733932	0.0499787398166518	167341
167.441	50	43	0	0	wreck	1840	43	0	stimuli\wreck\wreck_10s.jpg	9	-1	0	0	wreck_10s.jpg	0	0.0	0	152.91818072325398	152.968157268788	0.0499765455333545	167441
167.541	50	44	0	0	dogfood	496	44	0	stimuli\dogfood\dogfood_08s.jpg	7	-1	0	0	dogfood_08s.jpg	0	0.0	0	153.018178431446	153.068158390312	0.0499799588651513	167541
167.641	50	45	0	0	barbed_wire	71	45	0	stimuli\barbed_wire\barbed_wire_11s.jpg	10	-1	0	0	barbed_wire_11s.jpg	0	0.0	0	153.11817930916	153.168160243262	0.0499809341017681	167641
167.741	50	46	0	0	cornbread	413	46	0	stimuli\cornbread\cornbread_07s.jpg	6	-1	0	0	cornbread_07s.jpg	0	0.0	0	153.218183844016	153.268167216213	0.049983372196948	167741
167.841	50	47	0	0	brass_knuckles	193	47	0	stimuli\brass_knuckles\brass_knuckles_03s.jpg	2	-1	0	0	brass_knuckles_03s.jpg	0	0.0	0	153.318192523631	153.36816736249799	0.0499748388665466	167841
167.941	50	48	0	0	bottle_opener	171	48	0	stimuli\bottle_opener\bottle_opener_12s.jpg	11	-1	0	0	bottle_opener_12s.jpg	0	0.0	0	153.418193401345	153.468169946878	0.0499765455333545	167941
168.041	50	49	0	0	comb	389	49	0	stimuli\comb\comb_03s.jpg	2	-1	0	0	comb_03s.jpg	0	0.0	0	153.518192328584	153.56817058078198	0.0499782521983434	168041
168.141	50	50	0	0	dresser	519	50	0	stimuli\dresser\dresser_11s.jpg	10	-1	0	0	dresser_11s.jpg	0	0.0	0	153.618217831052	153.668204372771	0.0499865417186811	168141
168.241	50	51	0	0	shield	1420	51	0	stimuli\shield\shield_09s.jpg	8	-1	0	0	shield_09s.jpg	0	0.0	0	153.71821773352698	153.768197204772	0.0499794712450239	168241
168.341	50	52	0	0	straightjacket	1565	52	0	stimuli\straightjacket\straightjacket_07s.jpg	6	-1	0	0	straightjacket_07s.jpg	0	0.0	0	153.818212759816	153.868180040588	0.049967280772762	168341
168.441	50	53	0	0	ferry	580	53	0	stimuli\ferry\ferry_04s.jpg	3	-1	0	0	ferry_04s.jpg	0	0.0	0	153.918207542292	153.968190670681	0.0499831283887033	168441
168.541	50	54	0	0	foam	624	54	0	stimuli\foam\foam_11s.jpg	10	-1	0	0	foam_11s.jpg	0	0.0	0	154.018206957151	154.068170093164	0.0499631360125932	168541
168.641	50	55	0	0	sheath	1413	55	0	stimuli\sheath\sheath_01b.jpg	0	-1	0	0	sheath_01b.jpg	0	0.0	0	154.118212223435	154.16818608706302	0.0499738636281108	168641
168.741	50	56	0	0	duck	525	56	0	stimuli\duck\duck_03s.jpg	2	-1	0	0	duck_03s.jpg	0	0.0	0	154.218206762103	154.268195741917	0.0499889798138611	168741
168.841	50	57	0	0	chipmunk	334	57	0	stimuli\chipmunk\chipmunk_10s.jpg	9	-1	0	0	chipmunk_10s.jpg	0	0.0	0	154.318233727427	154.368215149147	0.0499814217200765	168841
168.941	50	58	0	0	railing	1277	58	0	stimuli\railing\railing_06s.jpg	5	-1	0	0	railing_06s.jpg	0	0.0	0	154.41823972513902	154.468217489717	0.04997776457821599	168941
169.041	50	59	0	0	calf1	241	59	0	stimuli\calf1\calf1_02s.jpg	1	-1	0	0	calf1_02s.jpg	0	0.0	0	154.51823718952102	154.568203982675	0.0499667931544536	169041
169.141	50	60	0	0	backdrop	47	60	0	stimuli\backdrop\backdrop_01b.jpg	0	-1	0	0	backdrop_01b.jpg	0	0.0	0	154.618223438669	154.66820242229602	0.0499789836267155	169141
169.241	50	61	0	0	egg_roll	547	61	0	stimuli\egg_roll\egg_roll_04s.jpg	3	-1	0	0	egg_roll_04s.jpg	0	0.0	0	154.718218952574	154.768201837152	0.0499828845786396	169241
169.341	50	62	0	0	silverware	1445	62	0	stimuli\silverware\silverware_07s.jpg	6	-1	0	0	silverware_07s.jpg	0	0.0	0	154.81822738838102	154.868205152961	0.04997776458003501	169341
169.441	50	63	0	0	deodorant	479	63	0	stimuli\deodorant\deodorant_08s.jpg	7	-1	0	0	deodorant_08s.jpg	0	0.0	0	154.91823046038	154.968208956388	0.0499784960084071	169441
169.541	50	64	0	0	vest	1759	64	0	stimuli\vest\vest_10s.jpg	9	-1	0	0	vest_10s.jpg	0	0.0	0	155.01823206952199	155.068211540767	0.0499794712450239	169541
169.641	50	65	0	0	trunk	1722	65	0	stimuli\trunk\trunk_08s.jpg	7	-1	0	0	trunk_08s.jpg	0	0.0	0	155.11823660437798	155.168216075623	0.0499794712450239	169641
169.741	50	66	0	0	crucifix	449	66	0	stimuli\crucifix\crucifix_07s.jpg	6	-1	0	1	crucifix_07s.jpg	0	0.0	0	155.21824065161502	155.268202080963	0.0499614293476043	169741
169.841	50	67	0	0	pillbox	1175	67	0	stimuli\pillbox\pillbox_08s.jpg	7	-1	0	0	pillbox_08s.jpg	0	0.0	0	155.31822592552498	155.368207347245	0.0499814217200765	169841
169.941	50	68	0	0	dice	486	68	0	stimuli\dice\dice_12s.jpg	11	-1	0	0	dice_12s.jpg	0	0.0	0	155.418231923237	155.468209444007	0.0499775207699713	169941
170.041	50	69	0	0	beet	114	69	0	stimuli\beet\beet_01b.jpg	0	-1	0	0	beet_01b.jpg	0	0.0	0	155.51823499523599	155.568212272196	0.0499772769599076	170041
170.141	50	70	0	0	antelope	26	70	0	stimuli\antelope\antelope_05n.jpg	4	-1	0	0	antelope_05n.jpg	1	0.392202584183906	1	155.61823733580601	155.66821510038602	0.04997776458003501	170141
170.241	50	71	0	0	tee	1636	71	0	stimuli\tee\tee_08s.jpg	7	-1	0	0	tee_08s.jpg	0	0.0	0	155.718237238281	155.768217928575	0.0499806902935234	170241
170.341	50	72	0	0	rocket	1320	72	0	stimuli\rocket\rocket_01b.jpg	0	-1	0	0	rocket_01b.jpg	0	0.0	0	155.818243479804	155.868223194859	0.0499797150550876	170341
170.441	50	73	0	0	quilt	1264	73	0	stimuli\quilt\quilt_11s.jpg	10	-1	0	0	quilt_11s.jpg	0	0.0	0	155.918244113709	155.968225779239	0.0499816655301402	170441
170.541	50	74	0	0	flipper	615	74	0	stimuli\flipper\flipper_06s.jpg	5	-1	0	0	flipper_06s.jpg	0	0.0	0	156.01824742951598	156.068232752188	0.0499853226720006	170541
170.641	50	75	0	0	fast_food	572	75	0	stimuli\fast_food\fast_food_03s.jpg	2	-1	0	0	fast_food_03s.jpg	0	0.0	0	156.118245381518	156.168227047048	0.0499816655301402	170641
170.741	50	76	0	0	cash_register	280	76	0	stimuli\cash_register\cash_register_02s.jpg	1	-1	0	0	cash_register_02s.jpg	0	0.0	0	156.21824699066002	156.268229875237	0.0499828845768207	170741
170.841	50	77	0	0	shirt	1422	77	0	stimuli\shirt\shirt_09s.jpg	8	-1	0	0	shirt_09s.jpg	0	0.0	0	156.318252988372	156.36823465390302	0.0499816655301402	170841
170.941	50	78	0	0	roller	1324	78	0	stimuli\roller\roller_08s.jpg	7	-1	0	0	roller_08s.jpg	0	0.0	0	156.41825386608602	156.46823406876	0.04998020267339599	170941
171.041	50	79	0	0	windsock	1822	79	0	stimuli\windsock\windsock_08s.jpg	7	-1	0	0	windsock_08s.jpg	0	0.0	0	156.51825620665701	156.56823616552	0.0499799588633323	171041
171.141	50	80	0	0	possum	1228	80	0	stimuli\possum\possum_09s.jpg	8	-1	0	0	possum_09s.jpg	0	0.0	0	156.618260497702	156.668246307992	0.049985810290309005	171141
171.241	50	81	0	0	snake	1477	81	0	stimuli\snake\snake_08s.jpg	7	-1	0	0	snake_08s.jpg	0	0.0	0	156.718265520176	156.76824474761298	0.0499792274367792	171241
171.341	50	82	0	0	lens	916	82	0	stimuli\lens\lens_06s.jpg	5	-1	0	0	lens_06s.jpg	0	0.0	0	156.818268104556	156.86824928246799	0.0499811779118318	171341
171.441	50	83	0	0	cheeseburger	313	83	0	stimuli\cheeseburger\cheeseburger_07s.jpg	6	-1	0	0	cheeseburger_07s.jpg	0	0.0	0	156.91826776322299	156.96824699066002	0.0499792274367792	171441
171.541	50	84	0	0	rhubarb	1307	84	0	stimuli\rhubarb\rhubarb_01b.jpg	0	-1	0	0	rhubarb_01b.jpg	0	0.0	0	157.01827497998198	157.068257133133	0.0499821531502675	171541
171.641	50	85	0	0	espresso	560	85	0	stimuli\espresso\espresso_07s.jpg	6	-1	0	0	espresso_07s.jpg	0	0.0	0	157.11827634531602	157.168257767036	0.0499814217200765	171641
171.741	50	86	0	0	peeler	1138	86	0	stimuli\peeler\peeler_01b.jpg	0	-1	0	0	peeler_01b.jpg	0	0.0	0	157.218274784935	157.26827790569598	0.0500031207611755	171741
171.841	50	87	0	0	tray	1705	87	0	stimuli\tray\tray_06s.jpg	5	-1	0	0	tray_06s.jpg	0	0.0	0	157.31827834455402	157.368260010084	0.0499816655301402	171841
171.941	50	88	0	0	ladder	886	88	0	stimuli\ladder\ladder_06s.jpg	5	-1	0	0	ladder_06s.jpg	0	0.0	0	157.418280928932	157.468259912559	0.0499789836267155	171941
172.041	50	89	0	0	chest2	320	89	0	stimuli\chest2\chest2_11s.jpg	10	-1	0	0	chest2_11s.jpg	0	0.0	0	157.518282050456	157.568263715986	0.0499816655301402	172041
172.141	50	90	0	0	chive	337	90	0	stimuli\chive\chive_09s.jpg	8	-1	0	0	chive_09s.jpg	0	0.0	0	157.618289754835	157.66826922607999	0.0499794712450239	172141
172.241	50	91	0	0	insole	831	91	0	stimuli\insole\insole_04s.jpg	3	-1	0	0	insole_04s.jpg	0	0.0	0	157.718290632549	157.768269128555	0.0499784960065881	172241
172.341	50	92	0	0	sink	1447	92	0	stimuli\sink\sink_06s.jpg	5	-1	0	0	sink_06s.jpg	0	0.0	0	157.81828955978702	157.868270006271	0.0499804464834597	172341
172.441	50	93	0	0	camera2	247	93	0	stimuli\camera2\camera2_02s.jpg	1	-1	0	0	camera2_02s.jpg	0	0.0	0	157.918294338451	157.968277466838	0.0499831283868843	172441
172.541	50	94	0	0	shears	1412	94	0	stimuli\shears\shears_03s.jpg	2	-1	0	0	shears_03s.jpg	0	0.0	0	158.018299604735	158.068284195979	0.0499845912436285	172541
172.641	50	95	0	0	wood	1833	95	0	stimuli\wood\wood_06s.jpg	5	-1	0	0	wood_06s.jpg	0	0.0	0	158.118301945306	158.168281660361	0.0499797150550876	172641
172.741	50	96	0	0	swimming_pool	1596	96	0	stimuli\swimming_pool\swimming_pool_02s.jpg	1	-1	0	0	swimming_pool_02s.jpg	0	0.0	0	158.218303066829	158.268284732359	0.0499816655301402	172741
172.841	50	97	0	0	pistachio	1188	97	0	stimuli\pistachio\pistachio_05s.jpg	4	-1	0	0	pistachio_05s.jpg	0	0.0	0	158.31830126264	158.368285610073	0.0499843474335648	172841
172.941	50	98	0	0	knee	877	98	0	stimuli\knee\knee_10s.jpg	9	-1	0	0	knee_10s.jpg	0	0.0	0	158.41830652892298	158.468288438264	0.0499819093402039	172941
173.041	50	99	0	0	grasshopper	706	99	0	stimuli\grasshopper\grasshopper_07s.jpg	6	-1	0	1	grasshopper_07s.jpg	0	0.0	0	158.518308869494	158.568294679784	0.049985810290309005	173041
173.141	50	100	0	0	cufflink	458	100	0	stimuli\cufflink\cufflink_12s.jpg	11	-1	0	0	cufflink_12s.jpg	0	0.0	0	158.618312672921	158.668293363215	0.0499806902935234	173141
173.241	50	101	0	0	cake_mix	238	101	0	stimuli\cake_mix\cake_mix_11s.jpg	10	-1	0	0	cake_mix_11s.jpg	0	0.0	0	158.718313794445	158.768294484737	0.0499806902917044	173241
173.341	50	102	0	0	prune	1244	102	0	stimuli\prune\prune_04s.jpg	3	-1	0	0	prune_04s.jpg	1	0.292142704587604	1	158.818317354062	158.868298288164	0.0499809341017681	173341
173.441	50	103	0	0	beard	106	103	0	stimuli\beard\beard_05s.jpg	4	-1	0	0	beard_05s.jpg	0	0.0	0	158.918322620346	158.96830038492598	0.04997776458003501	173441
173.541	50	104	0	0	nose	1063	104	0	stimuli\nose\nose_10s.jpg	9	-1	0	0	nose_10s.jpg	0	0.0	0	159.018320572346	159.06830491978099	0.0499843474353838	173541
173.641	50	105	0	0	confetti	396	105	0	stimuli\confetti\confetti_07s.jpg	6	-1	0	0	confetti_07s.jpg	0	0.0	0	159.118328276725	159.168301896545	0.0499736198198661	173641
173.741	50	106	0	0	lampshade	893	106	0	stimuli\lampshade\lampshade_04s.jpg	3	-1	0	0	lampshade_04s.jpg	0	0.0	0	159.218325984917	159.26830545616198	0.0499794712450239	173741
173.841	50	107	0	0	clay	352	107	0	stimuli\clay\clay_01b.jpg	0	-1	0	0	clay_01b.jpg	0	0.0	0	159.318330275963	159.368309015779	0.0499787398166518	173841
173.941	50	108	0	0	unicycle	1746	108	0	stimuli\unicycle\unicycle_02s.jpg	1	-1	0	0	unicycle_02s.jpg	0	0.0	0	159.418331397486	159.46831306301598	0.0499816655301402	173941
174.041	50	109	0	0	trowel	1719	109	0	stimuli\trowel\trowel_11s.jpg	10	-1	0	0	trowel_11s.jpg	0	0.0	0	159.518335444722	159.56831808549	0.0499826407685759	174041
174.141	50	110	0	0	book	165	110	0	stimuli\book\book_10s.jpg	9	-1	0	0	book_10s.jpg	0	0.0	0	159.618338029102	159.668316768919	0.0499787398166518	174141
174.241	50	111	0	0	cactus	235	111	0	stimuli\cactus\cactus_09n.jpg	8	-1	0	0	cactus_09n.jpg	0	0.0	0	159.718340125864	159.76832105996598	0.0499809341017681	174241
174.341	50	112	0	0	syrup	1605	112	0	stimuli\syrup\syrup_09s.jpg	8	-1	0	0	syrup_09s.jpg	0	0.0	0	159.81834831786	159.868323400537	0.0499750826766103	174341
174.441	50	113	0	0	fishbowl	601	113	0	stimuli\fishbowl\fishbowl_05s.jpg	4	-1	0	0	fishbowl_05s.jpg	0	0.0	0	159.918343831767	159.968323546822	0.0499797150550876	174441
174.541	50	114	0	0	air_conditioner	4	114	0	stimuli\air_conditioner\air_conditioner_11s.jpg	10	-1	0	0	air_conditioner_11s.jpg	0	0.0	0	160.018351048526	160.068330275963	0.0499792274367792	174541
174.641	50	115	0	0	tie	1658	115	0	stimuli\tie\tie_10s.jpg	9	-1	0	0	tie_10s.jpg	0	0.0	0	160.11835168243098	160.168328959391	0.0499772769599076	174641
174.741	50	116	0	0	rose	1334	116	0	stimuli\rose\rose_04s.jpg	3	-1	0	0	rose_04s.jpg	0	0.0	0	160.218351584906	160.26833739519898	0.049985810292128	174741
174.841	50	117	0	0	teddy_bear	1635	117	0	stimuli\teddy_bear\teddy_bear_01b.jpg	0	-1	0	0	teddy_bear_01b.jpg	0	0.0	0	160.318356607382	160.368343149101	0.0499865417186811	174841
174.941	50	118	0	0	fruit	645	118	0	stimuli\fruit\fruit_02s.jpg	1	-1	0	0	fruit_02s.jpg	0	0.0	0	160.418357972714	160.468337931579	0.0499799588651513	174941
175.041	50	119	0	0	scarecrow	1376	119	0	stimuli\scarecrow\scarecrow_11s.jpg	10	-1	0	0	scarecrow_11s.jpg	0	0.0	0	160.518363726616	160.568342222625	0.0499784960084071	175041
175.141	50	120	0	0	soldering_iron	1494	120	0	stimuli\soldering_iron\soldering_iron_10s.jpg	9	-1	0	0	soldering_iron_10s.jpg	0	0.0	0	160.61837362528098	160.668351146051	0.0499775207699713	175141
175.241	50	121	0	0	iceskate	823	121	0	stimuli\iceskate\iceskate_01b.jpg	0	-1	0	0	iceskate_01b.jpg	0	0.0	0	160.71837108966199	160.768349341861	0.0499782521983434	175241
175.341	50	122	0	0	lipstick	936	122	0	stimuli\lipstick\lipstick_04s.jpg	3	-1	0	0	lipstick_04s.jpg	0	0.0	0	160.818370992138	160.86835241386	0.0499814217218955	175341
175.441	50	123	0	0	ottoman	1086	123	0	stimuli\ottoman\ottoman_03s.jpg	2	-1	0	0	ottoman_03s.jpg	0	0.0	0	160.91837016318598	160.968352072527	0.0499819093402039	175441
175.541	50	124	0	0	stereo	1549	124	0	stimuli\stereo\stereo_07s.jpg	6	-1	0	0	stereo_07s.jpg	0	0.0	0	161.018377623755	161.068358801665	0.0499811779100128	175541
175.641	50	125	0	0	stopwatch	1562	125	0	stimuli\stopwatch\stopwatch_06s.jpg	5	-1	0	0	stopwatch_06s.jpg	0	0.0	0	161.11837630718398	161.16835675366698	0.0499804464834597	175641
175.741	50	126	0	0	snowshoe	1485	126	0	stimuli\snowshoe\snowshoe_12s.jpg	11	-1	0	0	snowshoe_12s.jpg	0	0.0	0	161.218381573468	161.268361288523	0.0499797150550876	175741
175.841	50	127	0	0	bee	111	127	0	stimuli\bee\bee_10s.jpg	9	-1	0	0	bee_10s.jpg	0	0.0	0	161.318384889275	161.368359971952	0.0499750826766103	175841
175.941	50	128	0	0	tricycle	1711	128	0	stimuli\tricycle\tricycle_09s.jpg	8	-1	0	0	tricycle_09s.jpg	0	0.0	0	161.418384060324	161.468362556332	0.0499784960084071	175941
176.041	50	129	0	0	saw	1366	129	0	stimuli\saw\saw_10s.jpg	9	-1	0	0	saw_10s.jpg	0	0.0	0	161.518390058036	161.568373430233	0.049983372196948	176041
176.141	50	130	0	0	chisel	336	130	0	stimuli\chisel\chisel_10s.jpg	9	-1	0	0	chisel_10s.jpg	0	0.0	0	161.618391910988	161.668367968901	0.0499760579132271	176141
176.241	50	131	0	0	calculator	240	131	0	stimuli\calculator\calculator_06s.jpg	5	-1	0	0	calculator_06s.jpg	0	0.0	0	161.718390838227	161.768371528518	0.0499806902917044	176241
176.341	50	132	0	0	lingerie	932	132	0	stimuli\lingerie\lingerie_04s.jpg	3	-1	0	0	lingerie_04s.jpg	0	0.0	0	161.81839561689	161.86838069575398	0.0499850788637559	176341
176.441	50	133	0	0	pen	1141	133	0	stimuli\pen\pen_08s.jpg	7	-1	0	0	pen_08s.jpg	0	0.0	0	161.918400395556	161.96837816013598	0.04997776458003501	176441
176.541	50	134	0	0	goalpost	683	134	0	stimuli\goalpost\goalpost_11s.jpg	10	-1	0	0	goalpost_11s.jpg	0	0.0	0	162.01840639326798	162.068390740702	0.0499843474335648	176541
176.641	50	135	0	0	anteater	25	135	0	stimuli\anteater\anteater_04s.jpg	3	-1	0	0	anteater_04s.jpg	0	0.0	0	162.118411171932	162.168386986037	0.0499758141049824	176641
176.741	50	136	0	0	blueberry	149	136	0	stimuli\blueberry\blueberry_05s.jpg	4	-1	0	0	blueberry_05s.jpg	0	0.0	0	162.218408880124	162.268392739939	0.0499838598152564	176741
176.841	50	137	0	0	wrist	1842	137	0	stimuli\wrist\wrist_06s.jpg	5	-1	0	0	wrist_06s.jpg	0	0.0	0	162.318418047358	162.368392886225	0.0499748388665466	176841
176.941	50	138	0	0	squirt_gun	1530	138	0	stimuli\squirt_gun\squirt_gun_07s.jpg	6	-1	0	0	squirt_gun_07s.jpg	0	0.0	0	162.418414048883	162.468392301083	0.0499782522001624	176941
177.041	50	139	0	0	bunkbed	222	139	0	stimuli\bunkbed\bunkbed_04s.jpg	3	-1	0	0	bunkbed_04s.jpg	0	0.0	0	162.518410538029	162.568393178797	0.0499826407685759	177041
177.141	50	140	0	0	brake	191	140	0	stimuli\brake\brake_01b.jpg	0	-1	0	0	brake_01b.jpg	0	0.0	0	162.618414097646	162.668395275557	0.0499811779118318	177141
177.241	50	141	0	0	glue	681	141	0	stimuli\glue\glue_04s.jpg	3	-1	0	0	glue_04s.jpg	0	0.0	0	162.718415950598	162.768397859938	0.0499819093402039	177241
177.341	50	142	0	0	duckling	526	142	0	stimuli\duckling\duckling_09s.jpg	8	-1	0	0	duckling_09s.jpg	0	0.0	0	162.818426580689	162.868407027172	0.0499804464834597	177341
177.441	50	143	0	0	roadsweeper	1316	143	0	stimuli\roadsweeper\roadsweeper_01b.jpg	0	-1	0	0	roadsweeper_01b.jpg	0	0.0	0	162.918423069834	162.96840180965	0.0499787398166518	177441
177.541	50	144	0	0	bow2	175	144	0	stimuli\bow2\bow2_09s.jpg	8	-1	0	0	bow2_09s.jpg	0	0.0	0	163.018427117069	163.068404881649	0.04997776458003501	177541
177.641	50	145	0	0	sandpaper	1356	145	0	stimuli\sandpaper\sandpaper_09s.jpg	8	-1	0	0	sandpaper_09s.jpg	0	0.0	0	163.118426044308	163.16840892888598	0.0499828845786396	177641
177.741	50	146	0	0	swing_set	1599	146	0	stimuli\swing_set\swing_set_01b.jpg	0	-1	0	0	swing_set_01b.jpg	0	0.0	0	163.218428628688	163.268412244694	0.0499836160051927	177741
177.841	50	147	0	0	float	616	147	0	stimuli\float\float_08s.jpg	7	-1	0	0	float_08s.jpg	0	0.0	0	163.318432675926	163.368412878599	0.04998020267339599	177841
177.941	50	148	0	0	sardine	1359	148	0	stimuli\sardine\sardine_07s.jpg	6	-1	0	0	sardine_07s.jpg	0	0.0	0	163.418436235543	163.468414731551	0.0499784960084071	177941
178.041	50	149	0	0	bathrobe	90	149	0	stimuli\bathrobe\bathrobe_03s.jpg	2	-1	0	1	bathrobe_03s.jpg	0	0.0	0	163.518436625638	163.568419022597	0.0499823969585123	178041
178.141	50	150	0	0	taco	1613	150	0	stimuli\taco\taco_06n.jpg	5	-1	0	0	taco_06n.jpg	0	0.0	0	163.618438966208	163.66842428888	0.0499853226720006	178141
178.241	50	151	0	0	wrapping_paper	1838	151	0	stimuli\wrapping_paper\wrapping_paper_03s.jpg	2	-1	0	0	wrapping_paper_03s.jpg	0	0.0	0	163.718442282017	163.768422972309	0.0499806902917044	178241
178.341	50	152	0	0	container	398	152	0	stimuli\container\container_03s.jpg	2	-1	0	0	container_03s.jpg	1	0.29214563030109303	1	163.818445841634	163.868430676688	0.0499848350536922	178341
178.441	50	153	0	0	water_bottle	1787	153	0	stimuli\water_bottle\water_bottle_06s.jpg	5	-1	0	0	water_bottle_06s.jpg	0	0.0	0	163.918449157443	163.968435455352	0.0499862979086174	178441
178.541	50	154	0	0	napkin	1050	154	0	stimuli\napkin\napkin_12s.jpg	11	-1	0	0	napkin_12s.jpg	0	0.0	0	164.018457349439	164.068438039732	0.0499806902935234	178541
178.641	50	155	0	0	mulberry	1037	155	0	stimuli\mulberry\mulberry_04s.jpg	3	-1	0	0	mulberry_04s.jpg	0	0.0	0	164.118458227154	164.168432822211	0.0499745950564829	178641
178.741	50	156	0	0	shower_curtain	1435	156	0	stimuli\shower_curtain\shower_curtain_04s.jpg	3	-1	0	0	shower_curtain_04s.jpg	0	0.0	0	164.218457154393	164.268436381828	0.0499792274349602	178741
178.841	50	157	0	0	ant	24	157	0	stimuli\ant\ant_10s.jpg	9	-1	0	0	ant_10s.jpg	0	0.0	0	164.3184604702	164.368446036682	0.0499855664820643	178841
178.941	50	158	0	0	violin	1764	158	0	stimuli\violin\violin_02s.jpg	1	-1	0	0	violin_02s.jpg	0	0.0	0	164.418464517437	164.468444963921	0.0499804464834597	178941
179.041	50	159	0	0	backgammon	48	159	0	stimuli\backgammon\backgammon_11s.jpg	10	-1	0	0	backgammon_11s.jpg	0	0.0	0	164.518470027529	164.568449254966	0.0499792274367792	179041
179.141	50	160	0	0	sausage	1365	160	0	stimuli\sausage\sausage_02s.jpg	1	-1	0	0	sausage_02s.jpg	0	0.0	0	164.618466516675	164.668448182205	0.0499816655301402	179141
179.241	50	161	0	0	spur	1525	161	0	stimuli\spur\spur_04s.jpg	3	-1	0	0	spur_04s.jpg	0	0.0	0	164.71846788200702	164.768447840872	0.0499799588651513	179241
179.341	50	162	0	0	orange_rind	1079	162	0	stimuli\orange_rind\orange_rind_11s.jpg	10	-1	0	0	orange_rind_11s.jpg	0	0.0	0	164.818473148291	164.868455057631	0.0499819093402039	179341
179.441	50	163	0	0	carriage	276	163	0	stimuli\carriage\carriage_02s.jpg	1	-1	0	0	carriage_02s.jpg	0	0.0	0	164.918473538386	164.968455203916	0.0499816655301402	179441
179.541	50	164	0	0	frame	639	164	0	stimuli\frame\frame_03s.jpg	2	-1	0	0	frame_03s.jpg	0	0.0	0	165.018493677046	165.068459251153	0.0499655741077731	179541
179.641	50	165	0	0	cane	258	165	0	stimuli\cane\cane_07s.jpg	6	-1	0	0	cane_07s.jpg	0	0.0	0	165.118482364287	165.16846134791402	0.0499789836267155	179641
179.741	50	166	0	0	jump_rope	858	166	0	stimuli\jump_rope\jump_rope_07s.jpg	6	-1	0	0	jump_rope_07s.jpg	0	0.0	0	165.218479828669	165.268475391338	0.0499955626692099	179741
179.841	50	167	0	0	extinguisher	563	167	0	stimuli\extinguisher\extinguisher_03s.jpg	2	-1	0	0	extinguisher_03s.jpg	0	0.0	0	165.318484119716	165.36846407858	0.0499799588633323	179841
179.941	50	168	0	0	buoy	223	168	0	stimuli\buoy\buoy_10s.jpg	9	-1	0	0	buoy_10s.jpg	0	0.0	0	165.41848914219	165.468465687722	0.0499765455315355	179941
180.041	50	169	0	0	hook2	794	169	0	stimuli\hook2\hook2_10s.jpg	9	-1	0	0	hook2_10s.jpg	0	0.0	0	165.518495383712	165.56847095400602	0.0499755702930997	180041
180.141	50	170	0	0	brooch	202	170	0	stimuli\brooch\brooch_04s.jpg	3	-1	0	0	brooch_04s.jpg	0	0.0	0	165.618492848094	165.668470612673	0.04997776457821599	180141
180.241	50	171	0	0	crow	446	171	0	stimuli\crow\crow_06s.jpg	5	-1	0	0	crow_06s.jpg	0	0.0	0	165.718493725808	165.768488313239	0.0499945874307741	180241
180.341	50	172	0	0	dishwasher	491	172	0	stimuli\dishwasher\dishwasher_09s.jpg	8	-1	0	0	dishwasher_09s.jpg	0	0.0	0	165.818501673995	165.868493091903	0.0499914179072221	180341
180.441	50	173	0	0	coop	404	173	0	stimuli\coop\coop_05s.jpg	4	-1	0	0	coop_05s.jpg	0	0.0	0	165.918514498371	165.968493238188	0.0499787398166518	180441
180.541	50	174	0	0	curling_iron	463	174	0	stimuli\curling_iron\curling_iron_09s.jpg	8	-1	0	1	curling_iron_09s.jpg	0	0.0	0	166.018512450371	166.06849850447202	0.0499860541003727	180541
180.641	50	175	0	0	brick	199	175	0	stimuli\brick\brick_04s.jpg	3	-1	0	0	brick_04s.jpg	0	0.0	0	166.118518204275	166.168501088852	0.0499828845768207	180641
180.741	50	176	0	0	floss	617	176	0	stimuli\floss\floss_07s.jpg	6	-1	0	0	floss_07s.jpg	0	0.0	0	166.218522251511	166.268520739894	0.0499984883826983	180741
180.841	50	177	0	0	vent	1758	177	0	stimuli\vent\vent_10s.jpg	9	-1	0	0	vent_10s.jpg	0	0.0	0	166.318523129225	166.368504307136	0.0499811779118318	180841
180.941	50	178	0	0	pedal	1136	178	0	stimuli\pedal\pedal_12s.jpg	11	-1	0	0	pedal_12s.jpg	0	0.0	0	166.418527420272	166.468502746757	0.049975326484855004	180941
181.041	50	179	0	0	horse	798	179	0	stimuli\horse\horse_10s.jpg	9	-1	0	0	horse_10s.jpg	1	0.50021650277813	1	166.518553897977	166.568509475897	0.0499555779206275	181041
181.141	50	180	0	0	catapult	285	180	0	stimuli\catapult\catapult_08s.jpg	7	-1	0	0	catapult_08s.jpg	0	0.0	0	166.618521373797	166.66850011361402	0.0499787398166518	181141
181.241	50	181	0	0	rollerskate	1327	181	0	stimuli\rollerskate\rollerskate_08s.jpg	7	-1	0	0	rollerskate_08s.jpg	0	0.0	0	166.718522007703	166.768502454184	0.0499804464816407	181241
181.341	50	182	0	0	boot	169	182	0	stimuli\boot\boot_01b.jpg	0	-1	0	0	boot_01b.jpg	0	0.0	0	166.818525079701	166.86850284428002	0.04997776457821599	181341
181.441	50	183	0	0	leotard	918	183	0	stimuli\leotard\leotard_09s.jpg	8	-1	0	0	leotard_09s.jpg	0	0.0	0	166.918525225987	166.96850664770702	0.0499814217200765	181441
181.541	50	184	0	0	microphone	998	184	0	stimuli\microphone\microphone_03s.jpg	2	-1	0	0	microphone_03s.jpg	0	0.0	0	167.018537318934	167.068526298748	0.0499889798138611	181541
181.641	50	185	0	0	air_pump	6	185	0	stimuli\air_pump\air_pump_07s.jpg	6	-1	0	0	air_pump_07s.jpg	0	0.0	0	167.118549899502	167.168526688843	0.0499767893415992	181641
181.741	50	186	0	0	clover	366	186	0	stimuli\clover\clover_01b.jpg	0	-1	0	0	clover_01b.jpg	0	0.0	0	167.21854395055	167.2685261037	0.0499821531502675	181741
181.841	50	187	0	0	coleslaw	386	187	0	stimuli\coleslaw\coleslaw_01b.jpg	0	-1	0	0	coleslaw_01b.jpg	0	0.0	0	167.318553849214	167.368529175699	0.049975326484855004	181841
181.941	50	188	0	0	red_carpet	1298	188	0	stimuli\red_carpet\red_carpet_10s.jpg	9	-1	0	0	red_carpet_10s.jpg	0	0.0	0	167.41855423931003	167.468533222936	0.0499789836267155	181941
182.041	50	189	0	0	fountain_pen	637	189	0	stimuli\fountain_pen\fountain_pen_06s.jpg	5	-1	0	0	fountain_pen_06s.jpg	0	0.0	0	167.51855657988	167.568535563507	0.0499789836267155	182041
182.141	50	190	0	0	whiteboard	1813	190	0	stimuli\whiteboard\whiteboard_05s.jpg	4	-1	0	0	whiteboard_05s.jpg	0	0.0	0	167.618563796639	167.668543511694	0.0499797150550876	182141
182.241	50	191	0	0	bread	194	191	0	stimuli\bread\bread_04s.jpg	3	-1	0	0	bread_04s.jpg	0	0.0	0	167.718558822926	167.76854268274099	0.0499838598152564	182241
182.341	50	192	0	0	flamethrower	607	192	0	stimuli\flamethrower\flamethrower_07s.jpg	6	-1	0	0	flamethrower_07s.jpg	0	0.0	0	167.818565308258	167.868536489983	0.0499711817246862	182341
182.441	50	193	0	0	cougar	423	193	0	stimuli\cougar\cougar_08s.jpg	7	-1	0	0	cougar_08s.jpg	0	0.0	0	167.918551801215	167.968531028651	0.0499792274367792	182441
182.541	50	194	0	0	handcuff	746	194	0	stimuli\handcuff\handcuff_12s.jpg	11	-1	0	0	handcuff_12s.jpg	0	0.0	0	168.018555360832	168.06853580731502	0.0499804464834597	182541
182.641	50	195	0	0	raft	1275	195	0	stimuli\raft\raft_02s.jpg	1	-1	0	0	raft_02s.jpg	0	0.0	0	168.118559408069	168.168538391696	0.0499789836267155	182641
182.741	50	196	0	0	flashbulb	610	196	0	stimuli\flashbulb\flashbulb_05s.jpg	4	-1	0	0	flashbulb_05s.jpg	0	0.0	0	168.218558822926	168.26855609226	0.0499972693341988	182741
182.841	50	197	0	0	cement_mixer	294	197	0	stimuli\cement_mixer\cement_mixer_06s.jpg	5	-1	0	0	cement_mixer_06s.jpg	0	0.0	0	168.318575304444	168.368558920451	0.0499836160070117	182841
182.941	50	198	0	0	scrabble	1385	198	0	stimuli\scrabble\scrabble_10s.jpg	9	-1	0	0	scrabble_10s.jpg	0	0.0	0	168.41857788882402	168.468560529593	0.0499826407685759	182941
183.041	50	199	0	0	tumbleweed	1727	199	0	stimuli\tumbleweed\tumbleweed_03s.jpg	2	-1	0	0	tumbleweed_03s.jpg	0	0.0	0	168.518582911298	168.56856213873502	0.0499792274367792	183041
183.141	50	200	0	0	torch	1683	200	0	stimuli\torch\torch_10s.jpg	9	-1	0	0	torch_10s.jpg	0	0.0	0	168.618583301393	168.668559846927	0.0499765455333545	183141
183.241	50	201	0	0	aircraft_carrier	9	201	0	stimuli\aircraft_carrier\aircraft_carrier_08s.jpg	7	-1	0	0	aircraft_carrier_08s.jpg	0	0.0	0	168.71858271625	168.76857120844602	0.0499884921955527	183241
183.341	50	202	0	0	eye_patch	565	202	0	stimuli\eye_patch\eye_patch_10s.jpg	9	-1	0	0	eye_patch_10s.jpg	0	0.0	0	168.818590176819	168.86857232997	0.0499821531502675	183341
183.441	50	203	0	0	binder	126	203	0	stimuli\binder\binder_03s.jpg	2	-1	0	0	binder_03s.jpg	0	0.0	0	168.918587397393	168.968573451493	0.0499860541003727	183441
183.541	50	204	0	0	hook1	793	204	0	stimuli\hook1\hook1_05s.jpg	4	-1	0	0	hook1_05s.jpg	0	0.0	0	169.018589250343	169.068577498729	0.04998824838548901	183541
183.641	50	205	0	0	headlamp	764	205	0	stimuli\headlamp\headlamp_02s.jpg	1	-1	0	0	headlamp_02s.jpg	0	0.0	0	169.11859768615102	169.168577645014	0.0499799588633323	183641
183.741	50	206	0	0	spark_plug	1506	206	0	stimuli\spark_plug\spark_plug_10s.jpg	9	-1	0	0	spark_plug_10s.jpg	0	0.0	0	169.218601733386	169.268584374155	0.0499826407685759	183741
183.841	50	207	0	0	ferret	578	207	0	stimuli\ferret\ferret_08s.jpg	7	-1	0	0	ferret_08s.jpg	0	0.0	0	169.318605049195	169.36858476425	0.0499797150550876	183841
183.941	50	208	0	0	hula_hoop	810	208	0	stimuli\hula_hoop\hula_hoop_12s.jpg	11	-1	0	0	hula_hoop_12s.jpg	0	0.0	0	169.41860422024402	169.468586617202	0.0499823969585123	183941
184.041	50	209	0	0	loveseat	947	209	0	stimuli\loveseat\loveseat_11s.jpg	10	-1	0	0	loveseat_11s.jpg	0	0.0	0	169.51860851128902	169.568592371104	0.0499838598152564	184041
184.141	50	210	0	0	broom	203	210	0	stimuli\broom\broom_03s.jpg	2	-1	0	0	broom_03s.jpg	0	0.0	0	169.618612558526	169.668594467867	0.0499819093402039	184141
184.241	50	211	0	0	blanket	136	211	0	stimuli\blanket\blanket_01b.jpg	0	-1	0	0	blanket_01b.jpg	0	0.0	0	169.718610022908	169.768592663677	0.0499826407685759	184241
184.341	50	212	0	0	pinecone	1183	212	0	stimuli\pinecone\pinecone_01b.jpg	0	-1	0	0	pinecone_01b.jpg	0	0.0	0	169.818613094907	169.868582813775	0.049969718867942	184341
184.441	50	213	0	0	makeup	961	213	0	stimuli\makeup\makeup_07s.jpg	6	-1	0	0	makeup_07s.jpg	0	0.0	0	169.91860300119498	169.968586129584	0.0499831283887033	184441
184.541	50	214	0	0	crank	432	214	0	stimuli\crank\crank_02s.jpg	1	-1	0	0	crank_02s.jpg	0	0.0	0	170.018603635101	170.068588226344	0.0499845912436285	184541
184.641	50	215	0	0	amplifier	20	215	0	stimuli\amplifier\amplifier_05s.jpg	4	-1	0	0	amplifier_05s.jpg	0	0.0	0	170.11864571661002	170.168624212616	0.0499784960065881	184641
184.741	50	216	0	0	trailer	1697	216	0	stimuli\trailer\trailer_09s.jpg	8	-1	0	0	trailer_09s.jpg	0	0.0	0	170.218645619085	170.268626553187	0.0499809341017681	184741
184.841	50	217	0	0	souffle	1498	217	0	stimuli\souffle\souffle_11s.jpg	10	-1	0	0	souffle_11s.jpg	0	0.0	0	170.31862894251898	170.36860597567102	0.0499770331516629	184841
184.941	50	218	0	0	origami	1083	218	0	stimuli\origami\origami_02s.jpg	1	-1	0	0	origami_02s.jpg	0	0.0	0	170.418628844996	170.46860880386	0.0499799588633323	184941
185.041	50	219	0	0	block	143	219	0	stimuli\block\block_10s.jpg	9	-1	0	0	block_10s.jpg	0	0.0	0	170.518635817945	170.568615289192	0.0499794712468429	185041
185.141	50	220	0	0	staple_gun	1538	220	0	stimuli\staple_gun\staple_gun_10s.jpg	9	-1	0	0	staple_gun_10s.jpg	0	0.0	0	170.61863352613702	170.668617629763	0.0499841036253201	185141
185.241	50	221	0	0	parking_meter	1120	221	0	stimuli\parking_meter\parking_meter_11s.jpg	10	-1	0	0	parking_meter_11s.jpg	0	0.0	0	170.71863854861098	170.768622164618	0.0499836160070117	185241
185.341	50	222	0	0	radish	1274	222	0	stimuli\radish\radish_05s.jpg	4	-1	0	0	radish_05s.jpg	0	0.0	0	170.818639426325	170.868621091857	0.0499816655319592	185341
185.441	50	223	0	0	graffiti	697	223	0	stimuli\graffiti\graffiti_03s.jpg	2	-1	0	0	graffiti_03s.jpg	0	0.0	0	170.91864298594402	170.96862855242398	0.0499855664802453	185441
185.541	50	224	0	0	slicer	1463	224	0	stimuli\slicer\slicer_05s.jpg	4	-1	0	0	slicer_05s.jpg	0	0.0	0	171.018648252228	171.06862747966298	0.0499792274349602	185541
185.641	50	225	0	0	apple_tree	31	225	0	stimuli\apple_tree\apple_tree_10s.jpg	9	-1	0	0	apple_tree_10s.jpg	0	0.0	0	171.118644009943	171.16862738214	0.049983372196948	185641
185.741	50	226	0	0	toaster_oven	1667	226	0	stimuli\toaster_oven\toaster_oven_04s.jpg	3	-1	0	0	toaster_oven_04s.jpg	0	0.0	0	171.21864805718	171.268636793184	0.0499887360037974	185741
185.841	50	227	0	0	eyepiece	568	227	0	stimuli\eyepiece\eyepiece_08s.jpg	7	-1	0	0	eyepiece_08s.jpg	0	0.0	0	171.318656005367	171.368634013756	0.0499780083882797	185841
185.941	50	228	0	0	fishhook	602	228	0	stimuli\fishhook\fishhook_11s.jpg	10	-1	0	0	fishhook_11s.jpg	0	0.0	0	171.418654201178	171.468635379089	0.0499811779118318	185941
186.041	50	229	0	0	puddle	1247	229	0	stimuli\puddle\puddle_05s.jpg	4	-1	0	0	puddle_05s.jpg	0	0.0	0	171.518667756982	171.56864015775298	0.0499724007713667	186041
186.141	50	230	0	0	brownie	204	230	0	stimuli\brownie\brownie_11s.jpg	10	-1	0	0	brownie_11s.jpg	0	0.0	0	171.618661076604	171.66864566784702	0.0499845912436285	186141
186.241	50	231	0	0	yacht	1844	231	0	stimuli\yacht\yacht_10s.jpg	9	-1	0	0	yacht_10s.jpg	0	0.0	0	171.718663660984	171.768645570322	0.0499819093383849	186241
186.341	50	232	0	0	basketball_hoop	84	232	0	stimuli\basketball_hoop\basketball_hoop_01b.jpg	0	-1	0	0	basketball_hoop_01b.jpg	0	0.0	0	171.818666245363	171.86864254708598	0.0499763017232908	186341
186.441	50	233	0	0	telephone_pole	1639	233	0	stimuli\telephone_pole\telephone_pole_04s.jpg	3	-1	0	0	telephone_pole_04s.jpg	0	0.0	0	171.918668829743	171.968650007655	0.0499811779118318	186441
186.541	50	234	0	0	stamp1	1535	234	0	stimuli\stamp1\stamp1_09s.jpg	8	-1	0	0	stamp1_09s.jpg	0	0.0	0	172.01867409602698	172.068654054892	0.0499799588651513	186541
186.641	50	235	0	0	tile	1660	235	0	stimuli\tile\tile_08s.jpg	7	-1	0	0	tile_08s.jpg	0	0.0	0	172.11867302326598	172.16865200689202	0.0499789836267155	186641
186.741	50	236	0	0	raccoon	1266	236	0	stimuli\raccoon\raccoon_09s.jpg	8	-1	0	0	raccoon_09s.jpg	0	0.0	0	172.218674876218	172.268661905555	0.0499870293369895	186741
186.841	50	237	0	0	videogame	1762	237	0	stimuli\videogame\videogame_05s.jpg	4	-1	0	0	videogame_05s.jpg	0	0.0	0	172.318681605359	172.368661076604	0.0499794712450239	186841
186.941	50	238	0	0	shaving_cream	1410	238	0	stimuli\shaving_cream\shaving_cream_02s.jpg	1	-1	0	0	shaving_cream_02s.jpg	0	0.0	0	172.418683214501	172.468667318124	0.0499841036235011	186941
187.041	50	239	0	0	potato	1231	239	0	stimuli\potato\potato_02n.jpg	1	-1	0	0	potato_02n.jpg	0	0.0	0	172.518686774118	172.568669658696	0.0499828845786396	187041
187.141	50	240	0	0	bomb	160	240	0	stimuli\bomb\bomb_08s.jpg	7	-1	0	0	bomb_08s.jpg	0	0.0	0	172.618687895641	172.66866956117198	0.0499816655301402	187141
187.241	50	241	0	0	pizza	1192	241	0	stimuli\pizza\pizza_02s.jpg	1	-1	0	0	pizza_02s.jpg	0	0.0	0	172.718689992402	172.76867385221698	0.0499838598152564	187241
187.341	50	242	0	0	hairnet	736	242	0	stimuli\hairnet\hairnet_07s.jpg	6	-1	0	0	hairnet_07s.jpg	0	0.0	0	172.818695746306	172.86867472993302	0.0499789836267155	187341
187.441	50	243	0	0	ferris_wheel	579	243	0	stimuli\ferris_wheel\ferris_wheel_11s.jpg	10	-1	0	0	ferris_wheel_11s.jpg	0	0.0	0	172.91869662402001	172.96867707050302	0.0499804464834597	187441
187.541	50	244	0	0	leaf	906	244	0	stimuli\leaf\leaf_01b.jpg	0	-1	0	0	leaf_01b.jpg	0	0.0	0	173.01869847696997	173.068681605359	0.0499831283887033	187541
187.641	50	245	0	0	bean	102	245	0	stimuli\bean\bean_08s.jpg	7	-1	0	0	bean_08s.jpg	0	0.0	0	173.118701792779	173.16867687545502	0.0499750826766103	187641
187.741	50	246	0	0	ruler	1341	246	0	stimuli\ruler\ruler_10s.jpg	9	-1	0	0	ruler_10s.jpg	0	0.0	0	173.21869706287498	173.268686042689	0.0499889798138611	187741
187.841	50	247	0	0	casserole	282	247	0	stimuli\casserole\casserole_02s.jpg	1	-1	0	0	casserole_02s.jpg	0	0.0	0	173.318705011063	173.36868838326	0.049983372196948	187841
187.941	50	248	0	0	tuxedo	1738	248	0	stimuli\tuxedo\tuxedo_03s.jpg	2	-1	0	0	tuxedo_03s.jpg	0	0.0	0	173.4187090583	173.468687798117	0.0499787398166518	187941
188.041	50	249	0	0	headset	769	249	0	stimuli\headset\headset_12s.jpg	11	-1	0	0	headset_12s.jpg	0	0.0	0	173.51870676649202	173.56868770059398	0.0499809341017681	188041
188.141	50	250	0	0	pepper_mill	1151	250	0	stimuli\pepper_mill\pepper_mill_06s.jpg	5	-1	0	0	pepper_mill_06s.jpg	0	0.0	0	173.618710813727	173.668689797354	0.0499789836267155	188141
188.241	50	251	0	0	humvee	813	251	0	stimuli\humvee\humvee_04s.jpg	3	-1	0	0	humvee_04s.jpg	0	0.0	0	173.718711935251	173.76869433221	0.0499823969585123	188241
188.341	50	252	0	0	hourglass	807	252	0	stimuli\hourglass\hourglass_11s.jpg	10	-1	0	0	hourglass_11s.jpg	0	0.0	0	173.818718420582	173.868697891829	0.0499794712468429	188341
188.441	50	253	0	0	drill	520	253	0	stimuli\drill\drill_12s.jpg	11	-1	0	0	drill_12s.jpg	0	0.0	0	173.918719298297	173.96869876954202	0.0499794712450239	188441
188.541	50	254	0	0	airbag	7	254	0	stimuli\airbag\airbag_09s.jpg	8	-1	0	0	airbag_09s.jpg	0	0.0	0	174.01872139505798	174.068703060588	0.0499816655301402	188541
188.641	50	255	0	0	sweet_potato	1595	255	0	stimuli\sweet_potato\sweet_potato_03s.jpg	2	-1	0	0	sweet_potato_03s.jpg	0	0.0	0	174.118729343245	174.168706620205	0.0499772769599076	188641
188.741	50	256	0	0	lobster	939	256	0	stimuli\lobster\lobster_09s.jpg	8	-1	0	0	lobster_09s.jpg	0	0.0	0	174.21872680762698	174.268713349345	0.0499865417186811	188741
188.841	50	257	0	0	bracelet1	187	257	0	stimuli\bracelet1\bracelet1_07s.jpg	6	-1	0	0	bracelet1_07s.jpg	0	0.0	0	174.318730367244	174.368707888014	0.0499775207699713	188841
188.941	50	258	0	0	pitchfork	1191	258	0	stimuli\pitchfork\pitchfork_01b.jpg	0	-1	0	0	pitchfork_01b.jpg	0	0.0	0	174.41873002591097	174.46871315429797	0.0499831283868843	188941
189.041	50	259	0	0	whoopee_cushion	1814	259	0	stimuli\whoopee_cushion\whoopee_cushion_06s.jpg	5	-1	0	0	whoopee_cushion_06s.jpg	0	0.0	0	174.51874333790698	174.568718176773	0.0499748388665466	189041
189.141	50	260	0	0	woman	1832	260	0	stimuli\woman\woman_12s.jpg	11	-1	0	0	woman_12s.jpg	0	0.0	0	174.61874202133498	174.668720761152	0.0499787398166518	189141
189.241	50	261	0	0	dalmatian	471	261	0	stimuli\dalmatian\dalmatian_01b.jpg	0	-1	0	1	dalmatian_01b.jpg	0	0.0	0	174.718742167621	174.768721638868	0.0499794712468429	189241
189.341	50	262	0	0	sunroof	1586	262	0	stimuli\sunroof\sunroof_06s.jpg	5	-1	0	0	sunroof_06s.jpg	0	0.0	0	174.818741582478	174.868720809915	0.0499792274367792	189341
189.441	50	263	0	0	corkscrew	411	263	0	stimuli\corkscrew\corkscrew_06s.jpg	5	-1	0	0	corkscrew_06s.jpg	0	0.0	0	174.918745142097	174.96872705143699	0.0499819093402039	189441
189.541	50	264	0	0	first-aid_kit	599	264	0	stimuli\first-aid_kit\first-aid_kit_09s.jpg	8	-1	0	0	first-aid_kit_09s.jpg	1	0.34193102923745805	1	175.018751871237	175.068730123436	0.0499782521983434	189541
189.641	50	265	0	0	licorice	922	265	0	stimuli\licorice\licorice_09s.jpg	8	-1	0	0	licorice_09s.jpg	0	0.0	0	175.118749823238	175.16873026972098	0.0499804464834597	189641
189.741	50	266	0	0	golf_cart	689	266	0	stimuli\golf_cart\golf_cart_05s.jpg	4	-1	0	0	golf_cart_05s.jpg	0	0.0	0	175.21875240761798	175.268719444583	0.0499670369645173	189741
189.841	50	267	0	0	highlighter	778	267	0	stimuli\highlighter\highlighter_04s.jpg	3	-1	0	0	highlighter_04s.jpg	0	0.0	0	175.318776934846	175.368758112758	0.0499811779118318	189841
189.941	50	268	0	0	tamale	1618	268	0	stimuli\tamale\tamale_04n.jpg	3	-1	0	0	tamale_04n.jpg	0	0.0	0	175.418762696376	175.46876020951998	0.0499975131442625	189941
190.041	50	269	0	0	rag	1276	269	0	stimuli\rag\rag_09s.jpg	8	-1	0	0	rag_09s.jpg	0	0.0	0	175.51878088456002	175.568744508191	0.0499636236309016	190041
190.141	50	270	0	0	beaver	107	270	0	stimuli\beaver\beaver_07s.jpg	6	-1	0	0	beaver_07s.jpg	0	0.0	0	175.618767865135	175.668747824	0.0499799588651513	190141
190.241	50	271	0	0	grenade	713	271	0	stimuli\grenade\grenade_05s.jpg	4	-1	0	0	grenade_05s.jpg	0	0.0	0	175.718767036184	175.768749189334	0.0499821531502675	190241
190.341	50	272	0	0	toucan	1690	272	0	stimuli\toucan\toucan_02s.jpg	1	-1	0	0	toucan_02s.jpg	0	0.0	0	175.818768645326	175.868749823238	0.0499811779118318	190341
190.441	50	273	0	0	brace	186	273	0	stimuli\brace\brace_11s.jpg	10	-1	0	0	brace_11s.jpg	0	0.0	0	175.91876903542098	175.96877020570702	0.0500011702861229	190441
190.541	50	274	0	0	stake	1533	274	0	stimuli\stake\stake_09s.jpg	8	-1	0	0	stake_09s.jpg	0	0.0	0	176.018800633125	176.068774496753	0.0499738636281108	190541
190.641	50	275	0	0	hard_disk	752	275	0	stimuli\hard_disk\hard_disk_05s.jpg	4	-1	0	0	hard_disk_05s.jpg	0	0.0	0	176.118781762274	176.16877781256198	0.0499960502875183	190641
190.741	50	276	0	0	ashtray	41	276	0	stimuli\ashtray\ashtray_09s.jpg	8	-1	0	0	ashtray_09s.jpg	0	0.0	0	176.218784102844	176.268758941711	0.0499748388665466	190741
190.841	50	277	0	0	stir_fry	1557	277	0	stimuli\stir_fry\stir_fry_09s.jpg	8	-1	0	0	stir_fry_09s.jpg	0	0.0	0	176.31878815008	176.3687617699	0.0499736198198661	190841
190.941	50	278	0	0	waterwheel	1794	278	0	stimuli\waterwheel\waterwheel_04s.jpg	3	-1	0	0	waterwheel_04s.jpg	0	0.0	0	176.418785370653	176.46876630475498	0.0499809341017681	190941
191.041	50	279	0	0	marmalade	976	279	0	stimuli\marmalade\marmalade_07s.jpg	6	-1	0	0	marmalade_07s.jpg	0	0.0	0	176.518788686461	176.568764256755	0.0499755702949187	191041
191.141	50	280	0	0	dishrag	490	280	0	stimuli\dishrag\dishrag_09s.jpg	8	-1	0	0	dishrag_09s.jpg	0	0.0	0	176.618790295604	176.668772204943	0.0499819093383849	191141
191.241	50	281	0	0	pantsuit	1109	281	0	stimuli\pantsuit\pantsuit_10s.jpg	9	-1	0	0	pantsuit_10s.jpg	0	0.0	0	176.718792636175	176.768778202655	0.0499855664802453	191241
191.341	50	282	0	0	cd_player	290	282	0	stimuli\cd_player\cd_player_04s.jpg	3	-1	0	0	cd_player_04s.jpg	0	0.0	0	176.81879765864898	176.868777129894	0.0499794712450239	191341
191.441	50	283	0	0	flagpole	606	283	0	stimuli\flagpole\flagpole_11s.jpg	10	-1	0	0	flagpole_11s.jpg	0	0.0	0	176.91879902398102	176.96878263998798	0.0499836160070117	191441
191.541	50	284	0	0	soda_fountain	1491	284	0	stimuli\soda_fountain\soda_fountain_10s.jpg	9	-1	0	0	soda_fountain_10s.jpg	0	0.0	0	177.01880233979	177.06878132341598	0.0499789836267155	191541
191.641	50	285	0	0	almond	13	285	0	stimuli\almond\almond_10s.jpg	9	-1	0	0	almond_10s.jpg	0	0.0	0	177.118801023218	177.168781469702	0.0499804464834597	191641
191.741	50	286	0	0	caterpillar	286	286	0	stimuli\caterpillar\caterpillar_01b.jpg	0	-1	0	0	caterpillar_01b.jpg	0	0.0	0	177.218821893306	177.268789661699	0.0499677683928894	191741
191.841	50	287	0	0	wine	1823	287	0	stimuli\wine\wine_10s.jpg	9	-1	0	0	wine_10s.jpg	0	0.0	0	177.318807167216	177.368788101319	0.0499809341035871	191841
191.941	50	288	0	0	hand	744	288	0	stimuli\hand\hand_12s.jpg	11	-1	0	0	hand_12s.jpg	0	0.0	0	177.41880755731097	177.468785809509	0.0499782521983434	191941
192.041	50	289	0	0	grinder	716	289	0	stimuli\grinder\grinder_09s.jpg	8	-1	0	0	grinder_09s.jpg	0	0.0	0	177.51881769978402	177.568795464364	0.04997776458003501	192041
192.141	50	290	0	0	turban	1730	290	0	stimuli\turban\turban_09s.jpg	8	-1	0	0	turban_09s.jpg	0	0.0	0	177.618818821307	177.668798536362	0.0499797150550876	192141
192.241	50	291	0	0	chair	300	291	0	stimuli\chair\chair_10s.jpg	9	-1	0	0	chair_10s.jpg	0	0.0	0	177.718835790443	177.76879624455398	0.0499604541109875	192241
192.341	50	292	0	0	arrow	38	292	0	stimuli\arrow\arrow_03s.jpg	2	-1	0	0	arrow_03s.jpg	0	0.0	0	177.818826184352	177.868802242267	0.0499760579150461	192341
192.441	50	293	0	0	daisy	470	293	0	stimuli\daisy\daisy_10s.jpg	9	-1	0	0	daisy_10s.jpg	0	0.0	0	177.91882974396998	177.96880897140701	0.0499792274367792	192441
192.541	50	294	0	0	vise	1765	294	0	stimuli\vise\vise_08s.jpg	7	-1	0	0	vise_08s.jpg	0	0.0	0	178.018828183589	178.068813018643	0.0499848350536922	192541
192.641	50	295	0	0	orange	1078	295	0	stimuli\orange\orange_02s.jpg	1	-1	0	0	orange_02s.jpg	0	0.0	0	178.11883076796903	178.168814871595	0.0499841036253201	192641
192.741	50	296	0	0	letter_opener	919	296	0	stimuli\letter_opener\letter_opener_05s.jpg	4	-1	0	0	letter_opener_05s.jpg	0	0.0	0	178.218836521872	178.268816724547	0.049980202675214996	192741
192.841	50	297	0	0	door	506	297	0	stimuli\door\door_09s.jpg	8	-1	0	0	door_09s.jpg	0	0.0	0	178.318842763394	178.368815164165	0.0499724007713667	192841
192.941	50	298	0	0	hot-air_balloon	801	298	0	stimuli\hot-air_balloon\hot-air_balloon_10s.jpg	9	-1	0	0	hot-air_balloon_10s.jpg	0	0.0	0	178.418838764919	178.468819211403	0.0499804464834597	192941
193.041	50	299	0	0	torpedo	1684	299	0	stimuli\torpedo\torpedo_07s.jpg	6	-1	0	0	torpedo_07s.jpg	0	0.0	0	178.518843787393	178.568821795783	0.0499780083900987	193041
193.141	50	300	0	0	sheep	1414	300	0	stimuli\sheep\sheep_10s.jpg	9	-1	0	0	sheep_10s.jpg	0	0.0	0	178.61884247082298	178.668825843019	0.049983372195129	193141
193.241	50	301	0	0	paintbrush	1097	301	0	stimuli\paintbrush\paintbrush_05s.jpg	4	-1	0	0	paintbrush_05s.jpg	0	0.0	0	178.718853100914	178.768824526449	0.0499714255347499	193241
193.341	50	302	0	0	shrimp	1438	302	0	stimuli\shrimp\shrimp_10s.jpg	9	-1	0	0	shrimp_10s.jpg	0	0.0	0	178.818853734818	178.86882808606603	0.0499743512482382	193341
193.441	50	303	0	0	fireplace	595	303	0	stimuli\fireplace\fireplace_07s.jpg	6	-1	0	0	fireplace_07s.jpg	0	0.0	0	178.91885168682	178.968835790443	0.0499841036235011	193441
193.541	50	304	0	0	mug	1036	304	0	stimuli\mug\mug_10s.jpg	9	-1	0	0	mug_10s.jpg	0	0.0	0	179.018854271199	179.068835205302	0.0499809341035871	193541
193.641	50	305	0	0	tape_recorder	1624	305	0	stimuli\tape_recorder\tape_recorder_03s.jpg	2	-1	0	0	tape_recorder_03s.jpg	0	0.0	0	179.118863926053	179.16883778968102	0.0499738636281108	193641
193.741	50	306	0	0	roof_rack	1329	306	0	stimuli\roof_rack\roof_rack_08s.jpg	7	-1	0	0	roof_rack_08s.jpg	0	0.0	0	179.21885968376998	179.26883720453998	0.0499775207699713	193741
193.841	50	307	0	0	slide	1464	307	0	stimuli\slide\slide_06s.jpg	5	-1	0	0	slide_06s.jpg	0	0.0	0	179.318860317673	179.36884368987	0.049983372196948	193841
193.941	50	308	0	0	timer	1661	308	0	stimuli\timer\timer_03s.jpg	2	-1	0	0	timer_03s.jpg	0	0.0	0	179.418862170625	179.46884017901402	0.0499780083882797	193941
209.192	50	309	0	0	radar	1271	0	1	stimuli\radar\radar_07s.jpg	6	-1	1	0	radar_07s.jpg	0	0.0	0	194.669275427617	194.719252460767	0.0499770331498439	209192
209.292	50	310	0	0	bottle	170	1	1	stimuli\bottle\bottle_08s.jpg	7	-1	1	0	bottle_08s.jpg	0	0.0	0	194.769274111046	194.81925260705398	0.0499784960084071	209292
209.392	50	311	0	0	rudder	1339	2	1	stimuli\rudder\rudder_01b.jpg	0	-1	1	0	rudder_01b.jpg	0	0.0	0	194.86927376971298	194.919255922861	0.0499821531484486	209392
209.492	50	312	0	0	moccasin	1010	3	1	stimuli\moccasin\moccasin_10s.jpg	9	-1	1	0	moccasin_10s.jpg	0	0.0	0	194.969279035997	195.019258507242	0.0499794712450239	209492
209.592	50	313	0	0	eggplant	550	4	1	stimuli\eggplant\eggplant_02s.jpg	1	-1	1	0	eggplant_02s.jpg	0	0.0	0	195.069281620377	195.119263529716	0.0499819093383849	209592
209.692	50	314	0	0	guillotine	721	5	1	stimuli\guillotine\guillotine_04s.jpg	3	-1	1	0	guillotine_04s.jpg	0	0.0	0	195.169285179994	195.219267333143	0.0499821531484486	209692
209.792	50	315	0	0	spider	1513	6	1	stimuli\spider\spider_02s.jpg	1	-1	1	0	spider_02s.jpg	0	0.0	0	195.26928532628003	195.31926601657298	0.0499806902935234	209792
209.892	50	316	0	0	candy_cane	257	7	1	stimuli\candy_cane\candy_cane_04s.jpg	3	-1	1	0	candy_cane_04s.jpg	0	0.0	0	195.36928766685003	195.41927298952203	0.0499853226720006	209892
209.992	50	317	0	0	macaroni	952	8	1	stimuli\macaroni\macaroni_11s.jpg	10	-1	1	0	macaroni_11s.jpg	0	0.0	0	195.469292201706	195.519273867236	0.0499816655301402	209992
210.092	50	318	0	0	saltshaker	1350	9	1	stimuli\saltshaker\saltshaker_03s.jpg	2	-1	1	0	saltshaker_03s.jpg	0	0.0	0	195.56929356703898	195.619268893524	0.049975326484855004	210092
210.192	50	319	0	0	thermos	1647	10	1	stimuli\thermos\thermos_12s.jpg	11	-1	1	0	thermos_12s.jpg	0	0.0	0	195.669290787611	195.719268552191	0.04997776458003501	210192
210.292	50	320	0	0	detonator	482	11	1	stimuli\detonator\detonator_11s.jpg	10	-1	1	0	detonator_11s.jpg	0	0.0	0	195.769289958658	195.819263578478	0.0499736198198661	210292
210.392	50	321	0	0	meerkat	992	12	1	stimuli\meerkat\meerkat_02s.jpg	1	-1	1	0	meerkat_02s.jpg	0	0.0	0	195.869288154468	195.91927055142898	0.0499823969603312	210392
210.492	50	322	0	0	cap	265	13	1	stimuli\cap\cap_03s.jpg	2	-1	1	0	cap_03s.jpg	0	0.0	0	195.96928635027902	196.01926899104697	0.0499826407685759	210492
210.592	50	323	0	0	gum	724	14	1	stimuli\gum\gum_09s.jpg	8	-1	1	0	gum_09s.jpg	0	0.0	0	196.069292104183	196.11927523257	0.0499831283868843	210592
210.692	50	324	0	0	generator	671	15	1	stimuli\generator\generator_06s.jpg	5	-1	1	0	generator_06s.jpg	0	0.0	0	196.169294444753	196.219276110283	0.0499816655301402	210692
210.792	50	325	0	0	rattle	1287	16	1	stimuli\rattle\rattle_06s.jpg	5	-1	1	0	rattle_06s.jpg	0	0.0	0	196.269298491989	196.31927601275902	0.0499775207699713	210792
210.892	50	326	0	0	pepper1	1149	17	1	stimuli\pepper1\pepper1_04s.jpg	3	-1	1	0	pepper1_04s.jpg	0	0.0	0	196.36929839446603	196.41928908094502	0.049990686478849994	210892
210.992	50	327	0	0	caviar	289	18	1	stimuli\caviar\caviar_05s.jpg	4	-1	1	0	caviar_05s.jpg	0	0.0	0	196.469309024556	196.519286789136	0.04997776458003501	210992
211.092	50	328	0	0	ribbon	1308	19	1	stimuli\ribbon\ribbon_01b.jpg	0	-1	1	0	ribbon_01b.jpg	0	0.0	0	196.569305026082	196.61929010494498	0.0499850788637559	211092
211.192	50	329	0	0	shuffleboard	1439	20	1	stimuli\shuffleboard\shuffleboard_10s.jpg	9	-1	1	0	shuffleboard_10s.jpg	0	0.0	0	196.66931468093603	196.71929147027697	0.0499767893415992	211192
211.292	50	330	0	0	snack	1475	21	1	stimuli\snack\snack_12s.jpg	11	-1	1	0	snack_12s.jpg	0	0.0	0	196.769311170079	196.81929576132302	0.0499845912436285	211292
211.392	50	331	0	0	seal	1397	22	1	stimuli\seal\seal_04s.jpg	3	-1	1	0	seal_04s.jpg	0	0.0	0	196.86931741160197	196.91929761427502	0.04998020267339599	211392
211.492	50	332	0	0	sewing_kit	1406	23	1	stimuli\sewing_kit\sewing_kit_04s.jpg	3	-1	1	0	sewing_kit_04s.jpg	0	0.0	0	196.969318289315	197.019299954845	0.0499816655301402	211492
211.592	50	333	0	0	pan	1103	24	1	stimuli\pan\pan_12s.jpg	11	-1	1	0	pan_12s.jpg	0	0.0	0	197.06932379940898	197.119302051608	0.0499782521983434	211592
211.692	50	334	0	0	candelabra	252	25	1	stimuli\candelabra\candelabra_11s.jpg	10	-1	1	0	candelabra_11s.jpg	0	0.0	0	197.169321263791	197.219306342653	0.0499850788619369	211692
211.792	50	335	0	0	eggnog	549	26	1	stimuli\eggnog\eggnog_06s.jpg	5	-1	1	0	eggnog_06s.jpg	0	0.0	0	197.26932384817002	197.319304050845	0.049980202675214996	211792
211.892	50	336	0	0	rocking_chair	1321	27	1	stimuli\rocking_chair\rocking_chair_12s.jpg	11	-1	1	0	rocking_chair_12s.jpg	0	0.0	0	197.36932228779	197.419316143792	0.049993856002402	211892
211.992	50	337	0	0	baseball_bat	79	28	1	stimuli\baseball_bat\baseball_bat_03s.jpg	2	-1	1	0	baseball_bat_03s.jpg	0	0.0	0	197.469332674073	197.519311657699	0.0499789836267155	211992
212.092	50	338	0	0	turtle	1736	29	1	stimuli\turtle\turtle_08s.jpg	7	-1	1	0	turtle_08s.jpg	0	0.0	0	197.569326968931	197.61931375446	0.0499867855287448	212092
212.192	50	339	0	0	column	388	30	1	stimuli\column\column_08s.jpg	7	-1	1	0	column_08s.jpg	0	0.0	0	197.669333210453	197.719313413127	0.04998020267339599	212192
212.292	50	340	0	0	hatbox	758	31	1	stimuli\hatbox\hatbox_05s.jpg	4	-1	1	0	hatbox_05s.jpg	0	0.0	0	197.769333356739	197.81931477845902	0.0499814217200765	212292
212.392	50	341	0	0	hose	800	32	1	stimuli\hose\hose_02s.jpg	1	-1	1	0	hose_02s.jpg	0	0.0	0	197.869341061116	197.919327359026	0.0499862979104364	212392
212.492	50	342	0	0	credit_card	438	33	1	stimuli\credit_card\credit_card_01b.jpg	0	-1	1	0	credit_card_01b.jpg	0	0.0	0	197.969351447398	198.019325798647	0.0499743512482382	212492
212.592	50	343	0	0	parfait	1119	34	1	stimuli\parfait\parfait_05s.jpg	4	-1	1	0	parfait_05s.jpg	0	0.0	0	198.06934866797002	198.11932887064498	0.049980202675214996	212592
212.692	50	344	0	0	mullet	1039	35	1	stimuli\mullet\mullet_07s.jpg	6	-1	1	0	mullet_07s.jpg	0	0.0	0	198.16935027711398	198.21933047978698	0.04998020267339599	212692
212.792	50	345	0	0	sifter	1443	36	1	stimuli\sifter\sifter_10s.jpg	9	-1	1	0	sifter_10s.jpg	0	0.0	0	198.269351154828	198.319329894644	0.0499787398166518	212792
212.892	50	346	0	0	foot	628	37	1	stimuli\foot\foot_12s.jpg	11	-1	1	0	foot_12s.jpg	0	0.0	0	198.369351788731	198.419337599023	0.049985810292128	212892
212.992	50	347	0	0	manatee	964	38	1	stimuli\manatee\manatee_02s.jpg	1	-1	1	0	manatee_02s.jpg	0	0.0	0	198.469358761682	198.51933823292703	0.0499794712450239	212992
213.092	50	348	0	0	razor	1290	39	1	stimuli\razor\razor_11n.jpg	10	-1	1	0	razor_11n.jpg	0	0.0	0	198.56935451939702	198.619338623022	0.0499841036253201	213092
213.192	50	349	0	0	coal	367	40	1	stimuli\coal\coal_02s.jpg	1	-1	1	1	coal_02s.jpg	0	0.0	0	198.66934247521198	198.719363150251	0.0500206750384677	213192
213.292	50	350	0	0	cash_machine	279	41	1	stimuli\cash_machine\cash_machine_01b.jpg	0	-1	1	0	cash_machine_01b.jpg	0	0.0	0	198.769384800529	198.819364515584	0.0499797150550876	213292
213.392	50	351	0	0	cantaloupe	263	42	1	stimuli\cantaloupe\cantaloupe_12s.jpg	11	-1	1	0	cantaloupe_12s.jpg	0	0.0	0	198.86938738491	198.919360517109	0.0499731321997388	213392
213.492	50	352	0	0	exhaust_pipe	562	43	1	stimuli\exhaust_pipe\exhaust_pipe_10s.jpg	9	-1	1	0	exhaust_pipe_10s.jpg	1	0.34197174541077396	1	198.96939094452702	199.01935456816003	0.0499636236327206	213492
213.592	50	353	0	0	bacon	51	44	1	stimuli\bacon\bacon_09s.jpg	8	-1	1	0	bacon_09s.jpg	0	0.0	0	199.069394504144	199.119372512534	0.0499780083900987	213592
213.692	50	354	0	0	pheasant	1160	45	1	stimuli\pheasant\pheasant_12s.jpg	11	-1	1	0	pheasant_12s.jpg	0	0.0	0	199.169379046627	199.21935827406202	0.0499792274349602	213692
213.792	50	355	0	0	saxophone	1368	46	1	stimuli\saxophone\saxophone_03s.jpg	2	-1	1	0	saxophone_03s.jpg	0	0.0	0	199.26937724243697	199.319357932729	0.0499806902917044	213792
213.892	50	356	0	0	bolo_tie	157	47	1	stimuli\bolo_tie\bolo_tie_04s.jpg	3	-1	1	0	bolo_tie_04s.jpg	0	0.0	0	199.369374219199	199.419358322824	0.0499841036253201	213892
213.992	50	357	0	0	clam	349	48	1	stimuli\clam\clam_03s.jpg	2	-1	1	0	clam_03s.jpg	0	0.0	0	199.469381923578	199.519364564347	0.0499826407685759	213992
214.092	50	358	0	0	gorilla	695	49	1	stimuli\gorilla\gorilla_09s.jpg	8	-1	1	0	gorilla_09s.jpg	0	0.0	0	199.56938109462502	199.619365929679	0.0499848350536922	214092
214.192	50	359	0	0	space_shuttle	1501	50	1	stimuli\space_shuttle\space_shuttle_04s.jpg	3	-1	1	0	space_shuttle_04s.jpg	0	0.0	0	199.66939172471803	199.719371195963	0.0499794712450239	214192
214.292	50	360	0	0	dolphin	502	51	1	stimuli\dolphin\dolphin_11n.jpg	10	-1	1	0	dolphin_11n.jpg	0	0.0	0	199.76938748243302	199.81937670605703	0.0499892236239248	214292
214.392	50	361	0	0	sandbox	1354	52	1	stimuli\sandbox\sandbox_02s.jpg	1	-1	1	0	sandbox_02s.jpg	0	0.0	0	199.86941981156502	199.919378559007	0.0499587474423606	214392
214.492	50	362	0	0	fur_coat	650	53	1	stimuli\fur_coat\fur_coat_09s.jpg	8	-1	1	0	fur_coat_09s.jpg	0	0.0	0	199.969399965476	200.01937992434102	0.0499799588651513	214492
214.592	50	363	0	0	bow1	174	54	1	stimuli\bow1\bow1_03s.jpg	2	-1	1	0	bow1_03s.jpg	0	0.0	0	200.069401818428	200.119380314436	0.0499784960084071	214592
214.692	50	364	0	0	chainsaw	299	55	1	stimuli\chainsaw\chainsaw_08s.jpg	7	-1	1	0	chainsaw_08s.jpg	0	0.0	0	200.169395381859	200.21938143596	0.0499860541003727	214692
214.792	50	365	0	0	earring	540	56	1	stimuli\earring\earring_02s.jpg	1	-1	1	0	earring_02s.jpg	0	0.0	0	200.26940089195202	200.319382801292	0.0499819093402039	214792
214.892	50	366	0	0	dumbbell	530	57	1	stimuli\dumbbell\dumbbell_10s.jpg	9	-1	1	0	dumbbell_10s.jpg	0	0.0	0	200.369413228709	200.419384410434	0.0499711817246862	214892
214.992	50	367	0	0	breadstick	196	58	1	stimuli\breadstick\breadstick_10s.jpg	9	-1	1	0	breadstick_10s.jpg	0	0.0	0	200.46940532928397	200.519386751004	0.0499814217200765	214992
215.092	50	368	0	0	card	271	59	1	stimuli\card\card_07s.jpg	6	-1	1	0	card_07s.jpg	0	0.0	0	200.56940425652303	200.61939469919201	0.0499904426687863	215092
215.192	50	369	0	0	flyswatter	623	60	1	stimuli\flyswatter\flyswatter_02s.jpg	1	-1	1	0	flyswatter_02s.jpg	0	0.0	0	200.669412448518	200.71939143214502	0.0499789836267155	215192
215.292	50	370	0	0	bobsled	155	61	1	stimuli\bobsled\bobsled_01s.jpg	0	-1	1	0	bobsled_01s.jpg	0	0.0	0	200.769410888139	200.81939547938202	0.0499845912436285	215292
215.392	50	371	0	0	mole	1014	62	1	stimuli\mole\mole_03s.jpg	2	-1	1	0	mole_03s.jpg	0	0.0	0	200.869419567754	200.919393187574	0.0499736198198661	215392
215.492	50	372	0	0	baseball_glove	80	63	1	stimuli\baseball_glove\baseball_glove_05s.jpg	4	-1	1	0	baseball_glove_05s.jpg	0	0.0	0	200.969409717853	201.019394796716	0.0499850788637559	215492
215.592	50	373	0	0	mouthpiece	1032	64	1	stimuli\mouthpiece\mouthpiece_03s.jpg	2	-1	1	0	mouthpiece_03s.jpg	0	0.0	0	201.06942132318198	201.11941469156602	0.0499933683840936	215592
215.692	50	374	0	0	trashcan	1704	65	1	stimuli\trashcan\trashcan_11s.jpg	10	-1	1	0	trashcan_11s.jpg	0	0.0	0	201.169420494231	201.219405816903	0.0499853226720006	215692
215.792	50	375	0	0	marijuana	974	66	1	stimuli\marijuana\marijuana_08s.jpg	7	-1	1	0	marijuana_08s.jpg	0	0.0	0	201.269428930036	201.319406450806	0.0499775207699713	215792
215.892	50	376	0	0	manhole	967	67	1	stimuli\manhole\manhole_03s.jpg	2	-1	1	0	manhole_03s.jpg	0	0.0	0	201.369419080136	201.41941683708902	0.0499977569525072	215892
215.992	50	377	0	0	stilt	1555	68	1	stimuli\stilt\stilt_06s.jpg	5	-1	1	0	stilt_06s.jpg	0	0.0	0	201.469434830226	201.519412350995	0.0499775207699713	215992
216.092	50	378	0	0	skunk	1459	69	1	stimuli\skunk\skunk_05s.jpg	4	-1	1	0	skunk_05s.jpg	0	0.0	0	201.569433513654	201.619427857275	0.0499943436207104	216092
216.192	50	379	0	0	music_box	1041	70	1	stimuli\music_box\music_box_04s.jpg	3	-1	1	0	music_box_04s.jpg	0	0.0	0	201.66944463136502	201.719412399758	0.0499677683928894	216192
216.292	50	380	0	0	scallop	1373	71	1	stimuli\scallop\scallop_04s.jpg	3	-1	1	0	scallop_04s.jpg	0	0.0	0	201.76943039289299	201.819407669855	0.0499772769617266	216292
216.392	50	381	0	0	breadbox	195	72	1	stimuli\breadbox\breadbox_01b.jpg	0	-1	1	0	breadbox_01b.jpg	0	0.0	0	201.869443704889	201.91941634947	0.0499726445814304	216392
216.492	50	382	0	0	station_wagon	1542	73	1	stimuli\station_wagon\station_wagon_08s.jpg	7	-1	1	0	station_wagon_08s.jpg	0	0.0	0	201.969433367369	202.01942137194402	0.0499880045754253	216492
216.592	50	383	0	0	carousel	275	74	1	stimuli\carousel\carousel_08s.jpg	7	-1	1	0	carousel_08s.jpg	0	0.0	0	202.06943717079602	202.119423468706	0.0499862979104364	216592
216.692	50	384	0	0	spatula	1508	75	1	stimuli\spatula\spatula_05s.jpg	4	-1	1	0	spatula_05s.jpg	0	0.0	0	202.169440974223	202.219426540705	0.0499855664820643	216692
216.792	50	385	0	0	fossil	636	76	1	stimuli\fossil\fossil_11s.jpg	10	-1	1	0	fossil_11s.jpg	0	0.0	0	202.269442827175	202.31942351746702	0.0499806902917044	216792
216.892	50	386	0	0	mousepad	1028	77	1	stimuli\mousepad\mousepad_10s.jpg	9	-1	1	0	mousepad_10s.jpg	0	0.0	0	202.36944224203202	202.419429027561	0.0499867855287448	216892
216.992	50	387	0	0	patty	1126	78	1	stimuli\patty\patty_12s.jpg	11	-1	1	0	patty_12s.jpg	0	0.0	0	202.469448483553	202.519425760514	0.0499772769617266	216992
217.092	50	388	0	0	jukebox	857	79	1	stimuli\jukebox\jukebox_11s.jpg	10	-1	1	0	jukebox_11s.jpg	0	0.0	0	202.56945058031502	202.619432489655	0.0499819093402039	217092
217.192	50	389	0	0	clarinet	350	80	1	stimuli\clarinet\clarinet_02n.jpg	1	-1	1	0	clarinet_02n.jpg	0	0.0	0	202.669458772312	202.71943873117598	0.0499799588633323	217192
217.292	50	390	0	0	lion	933	81	1	stimuli\lion\lion_06s.jpg	5	-1	1	0	lion_06s.jpg	0	0.0	0	202.76945111669602	202.819434976511	0.0499838598152564	217292
217.392	50	391	0	0	leash	907	82	1	stimuli\leash\leash_12s.jpg	11	-1	1	0	leash_12s.jpg	0	0.0	0	202.869455163933	202.919440242795	0.0499850788619369	217392
217.492	50	392	0	0	seismograph	1403	83	1	stimuli\seismograph\seismograph_05s.jpg	4	-1	1	1	seismograph_05s.jpg	0	0.0	0	202.969463355928	203.019447703364	0.0499843474353838	217492
217.592	50	393	0	0	noodle	1061	84	1	stimuli\noodle\noodle_09s.jpg	8	-1	1	0	noodle_09s.jpg	0	0.0	0	203.069465940309	203.119450531553	0.0499845912436285	217592
217.692	50	394	0	0	meatloaf	990	85	1	stimuli\meatloaf\meatloaf_08s.jpg	7	-1	1	0	meatloaf_08s.jpg	0	0.0	0	203.16947120659302	203.21944970260103	0.0499784960084071	217692
217.792	50	395	0	0	waffle	1770	86	1	stimuli\waffle\waffle_09s.jpg	8	-1	1	0	waffle_09s.jpg	1	0.300189878787933	1	203.269475497638	203.319454237457	0.0499787398184708	217792
217.892	50	396	0	0	clove	365	87	1	stimuli\clove\clove_12s.jpg	11	-1	1	0	clove_12s.jpg	0	0.0	0	203.36947564392398	203.419457309456	0.0499816655319592	217892
217.992	50	397	0	0	spider_web	1514	88	1	stimuli\spider_web\spider_web_05s.jpg	4	-1	1	0	spider_web_05s.jpg	0	0.0	0	203.46948895591999	203.519463307168	0.0499743512482382	217992
218.092	50	398	0	0	corn	412	89	1	stimuli\corn\corn_09s.jpg	8	-1	1	0	corn_09s.jpg	0	0.0	0	203.569482519351	203.61946711059502	0.0499845912436285	218092
218.192	50	399	0	0	fire_pit	593	90	1	stimuli\fire_pit\fire_pit_05s.jpg	4	-1	1	0	fire_pit_05s.jpg	0	0.0	0	203.66948339706502	203.71946408735698	0.0499806902917044	218192
218.292	50	400	0	0	stuffing	1575	91	1	stimuli\stuffing\stuffing_03s.jpg	2	-1	1	0	stuffing_03s.jpg	0	0.0	0	203.769500610011	203.81949056506198	0.0499899550504779	218292
218.392	50	401	0	0	whale	1804	92	1	stimuli\whale\whale_12s.jpg	11	-1	1	0	whale_12s.jpg	0	0.0	0	203.869490516299	203.919475595163	0.0499850788637559	218392
218.492	50	402	0	0	lego	913	93	1	stimuli\lego\lego_06s.jpg	5	-1	1	0	lego_06s.jpg	0	0.0	0	203.969492369251	204.019473059545	0.0499806902935234	218492
218.592	50	403	0	0	icemaker	821	94	1	stimuli\icemaker\icemaker_11s.jpg	10	-1	1	0	icemaker_11s.jpg	0	0.0	0	204.06949617267898	204.119480520114	0.0499843474353838	218592
218.692	50	404	0	0	magnifying_glass	958	95	1	stimuli\magnifying_glass\magnifying_glass_06s.jpg	5	-1	1	0	magnifying_glass_06s.jpg	0	0.0	0	204.169497538012	204.21947822830398	0.0499806902917044	218692
218.792	50	405	0	0	blimp	139	96	1	stimuli\blimp\blimp_07s.jpg	6	-1	1	0	blimp_07s.jpg	0	0.0	0	204.269503048105	204.319479593638	0.0499765455333545	218792
218.892	50	406	0	0	food_processor	627	97	1	stimuli\food_processor\food_processor_06s.jpg	5	-1	1	0	food_processor_06s.jpg	0	0.0	0	204.369509289627	204.41949022372899	0.0499809341017681	218892
218.992	50	407	0	0	retainer	1303	98	1	stimuli\retainer\retainer_01b.jpg	0	-1	1	0	retainer_01b.jpg	0	0.0	0	204.469508216866	204.519490857634	0.0499826407685759	218992
219.092	50	408	0	0	padlock	1095	99	1	stimuli\padlock\padlock_03s.jpg	2	-1	1	0	padlock_03s.jpg	0	0.0	0	204.569510801244	204.61949222296602	0.0499814217218955	219092
219.192	50	409	0	0	cable	234	100	1	stimuli\cable\cable_11s.jpg	10	-1	1	0	cable_11s.jpg	0	0.0	0	204.66951411705298	204.71949456353698	0.0499804464834597	219192
219.292	50	410	0	0	crouton	445	101	1	stimuli\crouton\crouton_11n.jpg	10	-1	1	0	crouton_11n.jpg	0	0.0	0	204.76951304429198	204.819497391725	0.0499843474335648	219292
219.392	50	411	0	0	whisk	1811	102	1	stimuli\whisk\whisk_03s.jpg	2	-1	1	0	whisk_03s.jpg	0	0.0	0	204.869518798194	204.91949948848702	0.0499806902935234	219392
219.492	50	412	0	0	folder	625	103	1	stimuli\folder\folder_12s.jpg	11	-1	1	0	folder_12s.jpg	0	0.0	0	204.969517237814	205.019503535725	0.0499862979104364	219492
219.592	50	413	0	0	counter	424	104	1	stimuli\counter\counter_09s.jpg	8	-1	1	0	counter_09s.jpg	0	0.0	0	205.069524698383	205.11950124391498	0.0499765455315355	219592
219.692	50	414	0	0	train	1698	105	1	stimuli\train\train_12n.jpg	11	-1	1	0	train_12n.jpg	0	0.0	0	205.169520212288	205.219504072105	0.0499838598170754	219692
219.792	50	415	0	0	fire_alarm	591	106	1	stimuli\fire_alarm\fire_alarm_07s.jpg	6	-1	1	0	fire_alarm_07s.jpg	0	0.0	0	205.269524990954	205.319505681247	0.0499806902935234	219792
219.892	50	416	0	0	lamppost	892	107	1	stimuli\lamppost\lamppost_08s.jpg	7	-1	1	0	lamppost_08s.jpg	0	0.0	0	205.369524405811	205.419513141816	0.0499887360056164	219892
219.992	50	417	0	0	mantle	969	108	1	stimuli\mantle\mantle_04s.jpg	3	-1	1	0	mantle_04s.jpg	0	0.0	0	205.469530159715	205.51951401953	0.0499838598152564	219992
220.092	50	418	0	0	tinsel	1662	109	1	stimuli\tinsel\tinsel_04s.jpg	3	-1	1	0	tinsel_04s.jpg	0	0.0	0	205.569532987904	205.619518554386	0.0499855664820643	220092
220.192	50	419	0	0	handbrake	745	110	1	stimuli\handbrake\handbrake_07s.jpg	6	-1	1	0	handbrake_07s.jpg	0	0.0	0	205.66954508085098	205.71951918828898	0.0499741074381745	220192
220.292	50	420	0	0	noose	1062	111	1	stimuli\noose\noose_11s.jpg	10	-1	1	0	noose_11s.jpg	0	0.0	0	205.769533768094	205.819519090766	0.0499853226720006	220292
220.392	50	421	0	0	dolly	501	112	1	stimuli\dolly\dolly_09s.jpg	8	-1	1	0	dolly_09s.jpg	0	0.0	0	205.86955146865898	205.91952606371498	0.0499745950564829	220392
220.492	50	422	0	0	cocoon	376	113	1	stimuli\cocoon\cocoon_05s.jpg	4	-1	1	0	cocoon_05s.jpg	0	0.0	0	205.96954478828	206.019527429049	0.0499826407685759	220492
220.592	50	423	0	0	penlight	1147	114	1	stimuli\penlight\penlight_06s.jpg	5	-1	1	0	penlight_06s.jpg	0	0.0	0	206.069547128851	206.119528306763	0.0499811779118318	220592
220.692	50	424	0	0	pigeon	1171	115	1	stimuli\pigeon\pigeon_12s.jpg	11	-1	1	0	pigeon_12s.jpg	0	0.0	0	206.16955727132301	206.219533573047	0.0499763017232908	220692
220.792	50	425	0	0	headband	762	116	1	stimuli\headband\headband_12s.jpg	11	-1	1	0	headband_12s.jpg	0	0.0	0	206.269555710944	206.319535182189	0.0499794712450239	220792
220.892	50	426	0	0	fireworks	598	117	1	stimuli\fireworks\fireworks_08s.jpg	7	-1	1	0	fireworks_08s.jpg	0	0.0	0	206.369562440083	206.419540936091	0.0499784960084071	220892
220.992	50	427	0	0	charger	308	118	1	stimuli\charger\charger_10s.jpg	9	-1	1	0	charger_10s.jpg	0	0.0	0	206.469561123513	206.51953840047298	0.0499772769599076	220992
221.092	50	428	0	0	ankle	22	119	1	stimuli\ankle\ankle_03s.jpg	2	-1	1	0	ankle_03s.jpg	0	0.0	0	206.569554930753	206.619540253425	0.0499853226720006	221092
221.192	50	429	0	0	goggles	686	120	1	stimuli\goggles\goggles_12s.jpg	11	-1	1	0	goggles_12s.jpg	0	0.0	0	206.66956409798698	206.719544300662	0.049980202675214996	221192
221.292	50	430	0	0	hedge	773	121	1	stimuli\hedge\hedge_05s.jpg	4	-1	1	0	hedge_05s.jpg	0	0.0	0	206.769558149037	206.819544690756	0.0499865417186811	221292
221.392	50	431	0	0	chalice	301	122	1	stimuli\chalice\chalice_02s.jpg	1	-1	1	0	chalice_02s.jpg	0	0.0	0	206.86956634103402	206.919553126563	0.0499867855287448	221392
221.492	50	432	0	0	file1	583	123	1	stimuli\file1\file1_02s.jpg	1	-1	1	0	file1_02s.jpg	0	0.0	0	206.96957038827202	207.019553029038	0.049982640766757	221492
221.592	50	433	0	0	nail_file	1048	124	1	stimuli\nail_file\nail_file_10s.jpg	9	-1	1	0	nail_file_10s.jpg	0	0.0	0	207.06957029074698	207.11955366294399	0.049983372196948	221592
221.692	50	434	0	0	spacesuit	1502	125	1	stimuli\spacesuit\spacesuit_08s.jpg	7	-1	1	0	spacesuit_08s.jpg	0	0.0	0	207.169579457981	207.219560148274	0.0499806902935234	221692
221.792	50	435	0	0	nacho	1045	126	1	stimuli\nacho\nacho_06n.jpg	5	-1	1	0	nacho_06n.jpg	0	0.0	0	207.269575703316	207.319557856466	0.0499821531502675	221792
221.892	50	436	0	0	blackberry	135	127	1	stimuli\blackberry\blackberry_08s.jpg	7	-1	1	0	blackberry_08s.jpg	0	0.0	0	207.369584382932	207.419568242747	0.0499838598152564	221892
221.992	50	437	0	0	skirt	1457	128	1	stimuli\skirt\skirt_07s.jpg	6	-1	1	0	skirt_07s.jpg	0	0.0	0	207.46958721112202	207.51956668236699	0.0499794712450239	221992
222.092	50	438	0	0	pom-pom	1218	129	1	stimuli\pom-pom\pom-pom_03s.jpg	2	-1	1	0	pom-pom_03s.jpg	0	0.0	0	207.569587845026	207.61956658484502	0.0499787398184708	222092
222.192	50	439	0	0	zucchini	1853	130	1	stimuli\zucchini\zucchini_12s.jpg	11	-1	1	0	zucchini_12s.jpg	0	0.0	0	207.66958847893102	207.71956819398702	0.0499797150550876	222192
222.292	50	440	0	0	oar	1068	131	1	stimuli\oar\oar_11s.jpg	10	-1	1	0	oar_11s.jpg	0	0.0	0	207.769588625217	207.81957102217498	0.0499823969585123	222292
222.392	50	441	0	0	barnacle	75	132	1	stimuli\barnacle\barnacle_12n.jpg	11	-1	1	0	barnacle_12n.jpg	0	0.0	0	207.869593403881	207.919573606556	0.049980202675214996	222392
222.492	50	442	0	0	van	1752	133	1	stimuli\van\van_06s.jpg	5	-1	1	0	van_06s.jpg	0	0.0	0	207.969595013024	208.01957350903098	0.0499784960065881	222492
222.592	50	443	0	0	faucet	573	134	1	stimuli\faucet\faucet_06s.jpg	5	-1	1	0	faucet_06s.jpg	0	0.0	0	208.06960101073503	208.119580238172	0.0499792274367792	222592
222.692	50	444	0	0	juicer1	855	135	1	stimuli\juicer1\juicer1_05s.jpg	4	-1	1	0	juicer1_05s.jpg	0	0.0	0	208.16959993797403	208.21957989683898	0.0499799588651513	222692
222.792	50	445	0	0	peppermint	1152	136	1	stimuli\peppermint\peppermint_03s.jpg	2	-1	1	0	peppermint_03s.jpg	0	0.0	0	208.269602766164	208.31958150598098	0.0499787398166518	222792
222.892	50	446	0	0	boxing_gloves	183	137	1	stimuli\boxing_gloves\boxing_gloves_02s.jpg	1	-1	1	0	boxing_gloves_02s.jpg	0	0.0	0	208.36960730102	208.419585309408	0.0499780083882797	222892
222.992	50	447	0	0	oyster	1092	138	1	stimuli\oyster\oyster_04s.jpg	3	-1	1	0	oyster_04s.jpg	0	0.0	0	208.469633291104	208.519592038549	0.0499587474441796	222992
223.092	50	448	0	0	compost	393	139	1	stimuli\compost\compost_12s.jpg	11	-1	1	0	compost_12s.jpg	0	0.0	0	208.569606862162	208.619598280071	0.04999141790904099	223092
223.192	50	449	0	0	potpie	1234	140	1	stimuli\potpie\potpie_05s.jpg	4	-1	1	0	potpie_05s.jpg	0	0.0	0	208.669617004634	208.719598182546	0.0499811779118318	223192
223.292	50	450	0	0	seesaw	1402	141	1	stimuli\seesaw\seesaw_08s.jpg	7	-1	1	0	seesaw_08s.jpg	0	0.0	0	208.769615931873	208.81960027930802	0.0499843474353838	223292
223.392	50	451	0	0	lawnmower	905	142	1	stimuli\lawnmower\lawnmower_04n.jpg	3	-1	1	0	lawnmower_04n.jpg	0	0.0	0	208.869624611489	208.91960237606898	0.04997776458003501	223392
223.492	50	452	0	0	leek	910	143	1	stimuli\leek\leek_08s.jpg	7	-1	1	0	leek_08s.jpg	0	0.0	0	208.969616224444	209.019601547117	0.0499853226738196	223492
223.592	50	453	0	0	ivy	834	144	1	stimuli\ivy\ivy_03s.jpg	2	-1	1	0	ivy_03s.jpg	0	0.0	0	209.069622465966	209.11961120196997	0.0499887360037974	223592
223.692	50	454	0	0	bat2	88	145	1	stimuli\bat2\bat2_09s.jpg	8	-1	1	0	bat2_09s.jpg	0	0.0	0	209.169631145582	209.219612323493	0.0499811779118318	223692
223.792	50	455	0	0	clock	359	146	1	stimuli\clock\clock_08n.jpg	7	-1	1	0	clock_08n.jpg	0	0.0	0	209.269627878535	209.319610763114	0.0499828845786396	223792
223.892	50	456	0	0	clipboard	355	147	1	stimuli\clipboard\clipboard_08s.jpg	7	-1	1	0	clipboard_08s.jpg	0	0.0	0	209.36963680196098	209.419616760826	0.0499799588651513	223892
223.992	50	457	0	0	slug	1472	148	1	stimuli\slug\slug_01s.jpg	0	-1	1	0	slug_01s.jpg	0	0.0	0	209.469636216818	209.519613737588	0.0499775207699713	223992
224.092	50	458	0	0	mongoose	1016	149	1	stimuli\mongoose\mongoose_01b.jpg	0	-1	1	0	mongoose_01b.jpg	0	0.0	0	209.569630755486	209.619616078158	0.0499853226720006	224092
224.192	50	459	0	0	popsicle	1225	150	1	stimuli\popsicle\popsicle_02s.jpg	1	-1	1	0	popsicle_02s.jpg	0	0.0	0	209.66964016653	209.719622807299	0.0499826407685759	224192
224.292	50	460	0	0	perfume	1154	151	1	stimuli\perfume\perfume_09s.jpg	8	-1	1	0	perfume_09s.jpg	0	0.0	0	209.76964275091098	209.819627585965	0.0499848350536922	224292
224.392	50	461	0	0	ratchet	1286	152	1	stimuli\ratchet\ratchet_05s.jpg	4	-1	1	0	ratchet_05s.jpg	0	0.0	0	209.869648017195	209.91963285224801	0.0499848350536922	224392
224.492	50	462	0	0	ticktacktoe	1657	153	1	stimuli\ticktacktoe\ticktacktoe_12s.jpg	11	-1	1	0	ticktacktoe_12s.jpg	0	0.0	0	209.969650601575	210.01963421758	0.0499836160051927	224492
224.592	50	463	0	0	chicken_wire	324	154	1	stimuli\chicken_wire\chicken_wire_04s.jpg	3	-1	1	0	chicken_wire_04s.jpg	0	0.0	0	210.069657818334	210.119638752436	0.0499809341017681	224592
224.692	50	464	0	0	doghouse	497	155	1	stimuli\doghouse\doghouse_03s.jpg	2	-1	1	0	doghouse_03s.jpg	0	0.0	0	210.169653819859	210.21963841110298	0.0499845912436285	224692
224.792	50	465	0	0	tortellini	1686	156	1	stimuli\tortellini\tortellini_10s.jpg	9	-1	1	0	tortellini_10s.jpg	0	0.0	0	210.269659086143	210.31963465643798	0.0499755702949187	224792
224.892	50	466	0	0	defibrillator	477	157	1	stimuli\defibrillator\defibrillator_08s.jpg	7	-1	1	0	defibrillator_08s.jpg	0	0.0	0	210.36965411243	210.419639435102	0.0499853226720006	224892
224.992	50	467	0	0	water_cooler	1788	158	1	stimuli\water_cooler\water_cooler_12s.jpg	11	-1	1	0	water_cooler_12s.jpg	0	0.0	0	210.469664986331	210.519646164243	0.0499811779118318	224992
225.092	50	468	0	0	branch	192	159	1	stimuli\branch\branch_01b.jpg	0	-1	1	0	branch_01b.jpg	0	0.0	0	210.569663913569	210.619648992433	0.0499850788637559	225092
225.192	50	469	0	0	payphone	1127	160	1	stimuli\payphone\payphone_04s.jpg	3	-1	1	0	payphone_04s.jpg	0	0.0	0	210.6696703989	210.719650845384	0.0499804464834597	225192
225.292	50	470	0	0	stick	1552	161	1	stimuli\stick\stick_03s.jpg	2	-1	1	1	stick_03s.jpg	0	0.0	0	210.769663962332	210.819651479289	0.0499875169571169	225292
225.392	50	471	0	0	pole	1213	162	1	stimuli\pole\pole_07s.jpg	6	-1	1	0	pole_07s.jpg	0	0.0	0	210.86967239813703	210.91965772080897	0.0499853226720006	225392
225.492	50	472	0	0	leggings	912	163	1	stimuli\leggings\leggings_03s.jpg	2	-1	1	0	leggings_03s.jpg	0	0.0	0	210.969674738708	211.019654941383	0.049980202675214996	225492
225.592	50	473	0	0	koala	884	164	1	stimuli\koala\koala_04s.jpg	3	-1	1	0	koala_04s.jpg	1	0.341933467330819	1	211.06967707928	211.119657281954	0.04998020267339599	225592
225.692	50	474	0	0	walker2	1774	165	1	stimuli\walker2\walker2_04s.jpg	3	-1	1	0	walker2_04s.jpg	0	0.0	0	211.16967429985198	211.219658647286	0.0499843474335648	225692
225.792	50	475	0	0	wasp	1785	166	1	stimuli\wasp\wasp_12s.jpg	11	-1	1	0	wasp_12s.jpg	0	0.0	0	211.26968200422903	211.31966196309398	0.0499799588651513	225792
225.892	50	476	0	0	stretcher	1572	167	1	stimuli\stretcher\stretcher_05s.jpg	4	-1	1	0	stretcher_05s.jpg	0	0.0	0	211.36968141908798	211.4196703989	0.0499889798120421	225892
225.992	50	477	0	0	chute	342	168	1	stimuli\chute\chute_05s.jpg	4	-1	1	0	chute_05s.jpg	0	0.0	0	211.46967425108997	211.51969541374802	0.0500211626585951	225992
226.092	50	478	0	0	mustard	1044	169	1	stimuli\mustard\mustard_06s.jpg	5	-1	1	0	mustard_06s.jpg	0	0.0	0	211.569716576409	211.619697754319	0.0499811779100128	226092
226.192	50	479	0	0	washing_machine	1784	170	1	stimuli\washing_machine\washing_machine_01b.jpg	0	-1	1	0	washing_machine_01b.jpg	0	0.0	0	211.66971964840698	211.719702289174	0.049982640766757	226192
226.292	50	480	0	0	life_jacket	924	171	1	stimuli\life_jacket\life_jacket_06s.jpg	5	-1	1	0	life_jacket_06s.jpg	0	0.0	0	211.76972003850102	211.81969195165402	0.0499719131530583	226292
226.392	50	481	0	0	box	181	172	1	stimuli\box\box_09s.jpg	8	-1	1	0	box_09s.jpg	0	0.0	0	211.869726036213	211.91970940841	0.049983372196948	226392
226.492	50	482	0	0	mulch	1038	173	1	stimuli\mulch\mulch_07s.jpg	6	-1	1	0	mulch_07s.jpg	0	0.0	0	211.96972959583198	212.019692488037	0.0499628922043485	226492
226.592	50	483	0	0	backscratcher	50	174	1	stimuli\backscratcher\backscratcher_11s.jpg	10	-1	1	0	backscratcher_11s.jpg	0	0.0	0	212.069749490682	212.119693609558	0.0499441188767378	226592
226.692	50	484	0	0	filing_cabinet	585	175	1	stimuli\filing_cabinet\filing_cabinet_08s.jpg	7	-1	1	0	filing_cabinet_08s.jpg	0	0.0	0	212.169714528409	212.219697900606	0.049983372196948	226692
226.792	50	485	0	0	banana	63	176	1	stimuli\banana\banana_02s.jpg	1	-1	1	0	banana_02s.jpg	0	0.0	0	212.269709798506	212.319695852606	0.0499860541003727	226792
226.892	50	486	0	0	drum	522	177	1	stimuli\drum\drum_07s.jpg	6	-1	1	0	drum_07s.jpg	0	0.0	0	212.36971384574298	212.41969648651002	0.049982640766757	226892
226.992	50	487	0	0	hair	733	178	1	stimuli\hair\hair_12s.jpg	11	-1	1	0	hair_12s.jpg	0	0.0	0	212.46971838059798	212.51969907089	0.0499806902917044	226992
227.092	50	488	0	0	ear	538	179	1	stimuli\ear\ear_05s.jpg	4	-1	1	0	ear_05s.jpg	0	0.0	0	212.569719014502	212.619707262887	0.04998824838548901	227092
227.192	50	489	0	0	football	629	180	1	stimuli\football\football_04s.jpg	3	-1	1	0	football_04s.jpg	0	0.0	0	212.66973013221298	212.71970935964802	0.0499792274349602	227192
227.292	50	490	0	0	spring_roll	1521	181	1	stimuli\spring_roll\spring_roll_02s.jpg	1	-1	1	0	spring_roll_02s.jpg	0	0.0	0	212.769722476596	212.81972803545102	0.0500055588545365	227292
227.392	50	491	0	0	turf	1732	182	1	stimuli\turf\turf_02s.jpg	1	-1	1	0	turf_02s.jpg	0	0.0	0	212.86973310668702	212.91971355317003	0.0499804464834597	227392
227.492	50	492	0	0	recorder	1297	183	1	stimuli\recorder\recorder_08s.jpg	7	-1	1	0	recorder_08s.jpg	0	0.0	0	212.969731790117	213.019711505172	0.0499797150550876	227492
227.592	50	493	0	0	birdbath	129	184	1	stimuli\birdbath\birdbath_08s.jpg	7	-1	1	0	birdbath_08s.jpg	0	0.0	0	213.069760462105	213.119719940978	0.0499594788725517	227592
227.692	50	494	0	0	wedge	1801	185	1	stimuli\wedge\wedge_11s.jpg	10	-1	1	0	wedge_11s.jpg	0	0.0	0	213.169736715066	213.219719112027	0.0499823969603312	227692
227.792	50	495	0	0	anvil	28	186	1	stimuli\anvil\anvil_12n.jpg	11	-1	1	0	anvil_12n.jpg	0	0.0	0	213.269741006114	213.31970731165	0.0499663055361452	227792
227.892	50	496	0	0	thorn	1650	187	1	stimuli\thorn\thorn_01b.jpg	0	-1	1	0	thorn_01b.jpg	0	0.0	0	213.369737982875	213.41972720649898	0.0499892236239248	227892
227.992	50	497	0	0	television	1641	188	1	stimuli\television\television_04s.jpg	3	-1	1	0	television_04s.jpg	0	0.0	0	213.46974739392	213.519727108975	0.0499797150550876	227992
228.092	50	498	0	0	cloud	364	189	1	stimuli\cloud\cloud_11s.jpg	10	-1	1	0	cloud_11s.jpg	0	0.0	0	213.56976728877103	213.61973335049703	0.0499660617260815	228092
228.192	50	499	0	0	chicken1	322	190	1	stimuli\chicken1\chicken1_04s.jpg	3	-1	1	0	chicken1_04s.jpg	0	0.0	0	213.669755244584	213.71973495963903	0.0499797150550876	228192
228.292	50	500	0	0	cymbal	468	191	1	stimuli\cymbal\cymbal_09s.jpg	8	-1	1	0	cymbal_09s.jpg	0	0.0	0	213.76975368420398	213.81974412687302	0.0499904426687863	228292
228.392	50	501	0	0	towel	1692	192	1	stimuli\towel\towel_10s.jpg	9	-1	1	0	towel_10s.jpg	0	0.0	0	213.869754561918	213.919740372208	0.049985810290309005	228392
228.492	50	502	0	0	blowfish	146	193	1	stimuli\blowfish\blowfish_01b.jpg	0	-1	1	0	blowfish_01b.jpg	0	0.0	0	213.969758121535	214.019741493732	0.049983372196948	228492
228.592	50	503	0	0	lava	903	194	1	stimuli\lava\lava_08s.jpg	7	-1	1	0	lava_08s.jpg	0	0.0	0	214.06977777257597	214.11974139620898	0.0499636236327206	228592
228.692	50	504	0	0	kaleidoscope	861	195	1	stimuli\kaleidoscope\kaleidoscope_03s.jpg	2	-1	1	0	kaleidoscope_03s.jpg	0	0.0	0	214.169755000774	214.219744224398	0.0499892236239248	228692
228.792	50	505	0	0	bat1	87	196	1	stimuli\bat1\bat1_02s.jpg	1	-1	1	0	bat1_02s.jpg	0	0.0	0	214.2697639242	214.319746321158	0.0499823969585123	228792
228.892	50	506	0	0	abacus	1	197	1	stimuli\abacus\abacus_03s.jpg	2	-1	1	0	abacus_03s.jpg	0	0.0	0	214.369773822864	214.419751343634	0.0499775207699713	228892
228.992	50	507	0	0	potholder	1232	198	1	stimuli\potholder\potholder_01s.jpg	0	-1	1	0	potholder_01s.jpg	0	0.0	0	214.469777870099	214.519754415633	0.0499765455333545	228992
229.092	50	508	0	0	top_hat	1682	199	1	stimuli\top_hat\top_hat_09s.jpg	8	-1	1	0	top_hat_09s.jpg	0	0.0	0	214.569773627816	214.61975821906003	0.0499845912436285	229092
229.192	50	509	0	0	horn	797	200	1	stimuli\horn\horn_02s.jpg	1	-1	1	0	horn_02s.jpg	0	0.0	0	214.669774749338	214.71975617106003	0.0499814217218955	229192
229.292	50	510	0	0	panther	1106	201	1	stimuli\panther\panther_12s.jpg	11	-1	1	0	panther_12s.jpg	0	0.0	0	214.76977318895803	214.819757780202	0.0499845912436285	229292
229.392	50	511	0	0	squeegee	1527	202	1	stimuli\squeegee\squeegee_03s.jpg	2	-1	1	0	squeegee_03s.jpg	0	0.0	0	214.86978235619202	214.919769385531	0.0499870293388085	229392
229.492	50	512	0	0	loom	946	203	1	stimuli\loom\loom_08s.jpg	7	-1	1	0	loom_08s.jpg	0	0.0	0	214.969784940573	215.019766606103	0.0499816655301402	229492
229.592	50	513	0	0	trigger	1713	204	1	stimuli\trigger\trigger_10s.jpg	9	-1	1	0	trigger_10s.jpg	0	0.0	0	215.069788500192	215.11976919048402	0.0499806902917044	229592
229.692	50	514	0	0	film	586	205	1	stimuli\film\film_10s.jpg	9	-1	1	0	film_10s.jpg	0	0.0	0	215.169783282669	215.21976811772203	0.0499848350536922	229692
229.792	50	515	0	0	lunchbox	950	206	1	stimuli\lunchbox\lunchbox_09s.jpg	8	-1	1	0	lunchbox_09s.jpg	0	0.0	0	215.26978952419103	215.319771433531	0.0499819093402039	229792
229.892	50	516	0	0	stirrup	1558	207	1	stimuli\stirrup\stirrup_10s.jpg	9	-1	1	0	stirrup_10s.jpg	0	0.0	0	215.369790645715	215.419773286483	0.0499826407685759	229892
229.992	50	517	0	0	strawberry	1570	208	1	stimuli\strawberry\strawberry_08n.jpg	7	-1	1	0	strawberry_08n.jpg	0	0.0	0	215.46979469295	215.51978099086003	0.0499862979104364	229992
230.092	50	518	0	0	gift	672	209	1	stimuli\gift\gift_10s.jpg	9	-1	1	0	gift_10s.jpg	0	0.0	0	215.569803616376	215.619784306669	0.0499806902935234	230092
230.192	50	519	0	0	bull	214	210	1	stimuli\bull\bull_03s.jpg	2	-1	1	0	bull_03s.jpg	0	0.0	0	215.669802299804	215.71978615961999	0.0499838598152564	230192
230.292	50	520	0	0	scoop	1381	211	1	stimuli\scoop\scoop_12s.jpg	11	-1	1	0	scoop_12s.jpg	0	0.0	0	215.76980464037499	215.81978923161802	0.0499845912436285	230292
230.392	50	521	0	0	toaster	1666	212	1	stimuli\toaster\toaster_10s.jpg	9	-1	1	0	toaster_10s.jpg	0	0.0	0	215.86980990665901	215.91978279505	0.0499728883914941	230392
230.492	50	522	0	0	champagne	304	213	1	stimuli\champagne\champagne_05s.jpg	4	-1	1	0	champagne_05s.jpg	0	0.0	0	215.969798106284	216.019784404192	0.0499862979086174	230492
230.592	50	523	0	0	radio	1273	214	1	stimuli\radio\radio_10s.jpg	9	-1	1	0	radio_10s.jpg	0	0.0	0	216.06980507923302	216.119783331431	0.0499782521983434	230592
230.692	50	524	0	0	refrigerator	1300	215	1	stimuli\refrigerator\refrigerator_05s.jpg	4	-1	1	0	refrigerator_05s.jpg	0	0.0	0	216.16980937027802	216.21979054819	0.0499811779118318	230692
230.792	50	525	0	0	calzone	243	216	1	stimuli\calzone\calzone_03s.jpg	2	-1	1	0	calzone_03s.jpg	0	0.0	0	216.269810735612	216.31979142590401	0.0499806902917044	230792
230.892	50	526	0	0	banner	70	217	1	stimuli\banner\banner_11s.jpg	10	-1	1	0	banner_11s.jpg	0	0.0	0	216.369815514276	216.419797423616	0.0499819093402039	230892
230.992	50	527	0	0	guardrail	720	218	1	stimuli\guardrail\guardrail_07s.jpg	6	-1	1	0	guardrail_07s.jpg	0	0.0	0	216.46982590055802	216.51980342132802	0.0499775207699713	230992
231.092	50	528	0	0	coffin	383	219	1	stimuli\coffin\coffin_09s.jpg	8	-1	1	0	coffin_09s.jpg	0	0.0	0	216.56982799731998	216.619802836185	0.0499748388647276	231092
231.192	50	529	0	0	cornmeal	415	220	1	stimuli\cornmeal\cornmeal_12s.jpg	11	-1	1	0	cornmeal_12s.jpg	0	0.0	0	216.66982399884498	216.71979956913898	0.0499755702930997	231192
231.292	50	530	0	0	coat	369	221	1	stimuli\coat\coat_01b.jpg	0	-1	1	0	coat_01b.jpg	0	0.0	0	216.769819025132	216.819806542089	0.0499875169571169	231292
231.392	50	531	0	0	cupcake	461	222	1	stimuli\cupcake\cupcake_12s.jpg	11	-1	1	0	cupcake_12s.jpg	0	0.0	0	216.869825754273	216.919811564563	0.049985810290309005	231392
231.492	50	532	0	0	suspenders	1589	223	1	stimuli\suspenders\suspenders_08s.jpg	7	-1	1	0	suspenders_08s.jpg	0	0.0	0	216.969827119605	217.01981097942001	0.0499838598152564	231492
231.592	50	533	0	0	aardvark	0	224	1	stimuli\aardvark\aardvark_05s.jpg	4	-1	1	0	aardvark_05s.jpg	0	0.0	0	217.069830923032	217.11981331999198	0.0499823969603312	231592
231.692	50	534	0	0	candlestick	254	225	1	stimuli\candlestick\candlestick_03s.jpg	2	-1	1	0	candlestick_03s.jpg	0	0.0	0	217.169831313127	217.219816391991	0.0499850788637559	231692
231.792	50	535	0	0	vacuum	1750	226	1	stimuli\vacuum\vacuum_03s.jpg	2	-1	1	0	vacuum_03s.jpg	0	0.0	0	217.269823901321	217.319850183978	0.0500262826571998	231792
231.892	50	536	0	0	cummerbund	459	227	1	stimuli\cummerbund\cummerbund_09s.jpg	8	-1	1	0	cummerbund_09s.jpg	0	0.0	0	217.369876710445	217.41985154931197	0.0499748388665466	231892
231.992	50	537	0	0	kilt	872	228	1	stimuli\kilt\kilt_03s.jpg	2	-1	1	0	kilt_03s.jpg	0	0.0	0	217.46987027387502	217.519834872746	0.0499645988711563	231992
232.092	50	538	0	0	sprouts	1524	229	1	stimuli\sprouts\sprouts_09s.jpg	8	-1	1	0	sprouts_09s.jpg	0	0.0	0	217.56985774207	217.619834043793	0.0499763017232908	232092
232.192	50	539	0	0	yak	1845	230	1	stimuli\yak\yak_11s.jpg	10	-1	1	0	yak_11s.jpg	0	0.0	0	217.669854962644	217.71983638436402	0.0499814217200765	232192
232.292	50	540	0	0	step_stool	1548	231	1	stimuli\step_stool\step_stool_12s.jpg	11	-1	1	0	step_stool_12s.jpg	0	0.0	0	217.769856327976	217.81983823731602	0.0499819093402039	232292
232.392	50	541	0	0	helicopter	775	232	1	stimuli\helicopter\helicopter_10s.jpg	9	-1	1	0	helicopter_10s.jpg	0	0.0	0	217.869861838069	217.91984252836102	0.0499806902917044	232392
232.492	50	542	0	0	thread	1651	233	1	stimuli\thread\thread_06s.jpg	5	-1	1	1	thread_06s.jpg	0	0.0	0	217.969862471973	218.019844868932	0.0499823969585123	232492
232.592	50	543	0	0	pug	1249	234	1	stimuli\pug\pug_02s.jpg	1	-1	1	0	pug_02s.jpg	0	0.0	0	218.06986651921002	218.11984940378701	0.0499828845768207	232592
232.692	50	544	0	0	grain	698	235	1	stimuli\grain\grain_10s.jpg	9	-1	1	0	grain_10s.jpg	0	0.0	0	218.169871541684	218.219848818646	0.0499772769617266	232692
232.792	50	545	0	0	porthole	1227	236	1	stimuli\porthole\porthole_06s.jpg	5	-1	1	0	porthole_06s.jpg	0	0.0	0	218.26987266320802	218.319851403025	0.0499787398166518	232792
232.892	50	546	0	0	paper_bag	1113	237	1	stimuli\paper_bag\paper_bag_08s.jpg	7	-1	1	0	paper_bag_08s.jpg	1	0.392177228004584	1	218.36987768568198	218.41985179312	0.0499741074381745	232892
232.992	50	547	0	0	car_seat	269	238	1	stimuli\car_seat\car_seat_03s.jpg	2	-1	1	0	car_seat_03s.jpg	0	0.0	0	218.469872955779	218.519856084165	0.0499831283868843	232992
233.092	50	548	0	0	fuse	652	239	1	stimuli\fuse\fuse_07s.jpg	6	-1	1	0	fuse_07s.jpg	0	0.0	0	218.569875540159	218.61986037521302	0.0499848350536922	233092
233.192	50	549	0	0	bedpan	109	240	1	stimuli\bedpan\bedpan_03s.jpg	2	-1	1	0	bedpan_03s.jpg	0	0.0	0	218.669880806443	218.719858814831	0.0499780083882797	233192
233.292	50	550	0	0	shoehorn	1425	241	1	stimuli\shoehorn\shoehorn_02s.jpg	1	-1	1	0	shoehorn_02s.jpg	0	0.0	0	218.769876807968	218.81986115540198	0.0499843474335648	233292
233.392	50	551	0	0	windowsill	1819	242	1	stimuli\windowsill\windowsill_11s.jpg	10	-1	1	0	windowsill_11s.jpg	0	0.0	0	218.869888169487	218.91986861597098	0.0499804464834597	233392
233.492	50	552	0	0	mussel	1042	243	1	stimuli\mussel\mussel_11s.jpg	10	-1	1	0	mussel_11s.jpg	0	0.0	0	218.969882220537	219.019869249876	0.0499870293388085	233492
233.592	50	553	0	0	muffin	1035	244	1	stimuli\muffin\muffin_12n.jpg	11	-1	1	0	muffin_12n.jpg	0	0.0	0	219.069898702055	219.119875247588	0.0499765455333545	233592
233.692	50	554	0	0	rubber_band	1337	245	1	stimuli\rubber_band\rubber_band_12s.jpg	11	-1	1	0	rubber_band_12s.jpg	0	0.0	0	219.169894215962	219.219874906255	0.0499806902935234	233692
233.792	50	555	0	0	marble	972	246	1	stimuli\marble\marble_05s.jpg	4	-1	1	0	marble_05s.jpg	0	0.0	0	219.26989777557898	219.319879441111	0.0499816655319592	233792
233.892	50	556	0	0	clothesline	362	247	1	stimuli\clothesline\clothesline_11s.jpg	10	-1	1	0	clothesline_11s.jpg	0	0.0	0	219.369894264724	219.419865934067	0.0499716693429946	233892
233.992	50	557	0	0	chalkboard	303	248	1	stimuli\chalkboard\chalkboard_08s.jpg	7	-1	1	0	chalkboard_08s.jpg	0	0.0	0	219.46988685291802	219.51987095654098	0.0499841036235011	233992
234.092	50	558	0	0	cranberry	430	249	1	stimuli\cranberry\cranberry_05s.jpg	4	-1	1	0	cranberry_05s.jpg	0	0.0	0	219.569898702055	219.619875491397	0.0499767893415992	234092
234.192	50	559	0	0	parsley	1122	250	1	stimuli\parsley\parsley_07n.jpg	6	-1	1	0	parsley_07n.jpg	0	0.0	0	219.669896654057	219.719877100539	0.0499804464816407	234192
234.292	50	560	0	0	grill	714	251	1	stimuli\grill\grill_08s.jpg	7	-1	1	0	grill_08s.jpg	0	0.0	0	219.769900945103	219.819877490634	0.0499765455315355	234292
234.392	50	561	0	0	tostada	1688	252	1	stimuli\tostada\tostada_02s.jpg	1	-1	1	0	tostada_02s.jpg	0	0.0	0	219.86990035996	219.919881050253	0.0499806902935234	234392
234.492	50	562	0	0	chalk	302	253	1	stimuli\chalk\chalk_05s.jpg	4	-1	1	0	chalk_05s.jpg	0	0.0	0	219.96990001862702	220.01988119653802	0.0499811779118318	234492
234.592	50	563	0	0	firetruck	596	254	1	stimuli\firetruck\firetruck_09s.jpg	8	-1	1	0	firetruck_09s.jpg	0	0.0	0	220.069906503957	220.119886462822	0.0499799588651513	234592
234.692	50	564	0	0	brush	205	255	1	stimuli\brush\brush_08s.jpg	7	-1	1	0	brush_08s.jpg	0	0.0	0	220.169903236911	220.219888315774	0.0499850788637559	234692
234.792	50	565	0	0	steering_wheel	1546	256	1	stimuli\steering_wheel\steering_wheel_08s.jpg	7	-1	1	0	steering_wheel_08s.jpg	0	0.0	0	220.26990582129102	220.319890168725	0.0499843474335648	234792
234.892	50	566	0	0	peanut_butter	1132	257	1	stimuli\peanut_butter\peanut_butter_05s.jpg	4	-1	1	0	peanut_butter_05s.jpg	0	0.0	0	220.36990816186199	220.419900311197	0.0499921493355941	234892
234.992	50	567	0	0	flypaper	622	258	1	stimuli\flypaper\flypaper_07s.jpg	6	-1	1	0	flypaper_07s.jpg	0	0.0	0	220.469921473858	220.519900701292	0.0499792274349602	234992
235.092	50	568	0	0	maggot	955	259	1	stimuli\maggot\maggot_06s.jpg	5	-1	1	0	maggot_06s.jpg	0	0.0	0	220.56991918204798	220.61990694281502	0.0499877607671806	235092
235.192	50	569	0	0	cornucopia	416	260	1	stimuli\cornucopia\cornucopia_03s.jpg	2	-1	1	0	cornucopia_03s.jpg	0	0.0	0	220.66992615499802	220.719908308147	0.0499821531484486	235192
235.292	50	570	0	0	bouquet	173	261	1	stimuli\bouquet\bouquet_10s.jpg	9	-1	1	0	bouquet_10s.jpg	0	0.0	0	220.769927032712	220.819914549669	0.0499875169571169	235292
235.392	50	571	0	0	rolling_pin	1328	262	1	stimuli\rolling_pin\rolling_pin_06s.jpg	5	-1	1	0	rolling_pin_06s.jpg	0	0.0	0	220.869932786614	220.91990981976602	0.0499770331516629	235392
235.492	50	572	0	0	cherry	316	263	1	stimuli\cherry\cherry_10n.jpg	9	-1	1	0	cherry_10n.jpg	0	0.0	0	220.969930494806	221.01991508605	0.0499845912436285	235492
235.592	50	573	0	0	trap	1702	264	1	stimuli\trap\trap_09s.jpg	8	-1	1	0	trap_09s.jpg	0	0.0	0	221.069941856325	221.119921815191	0.0499799588651513	235592
235.692	50	574	0	0	wand	1780	265	1	stimuli\wand\wand_07s.jpg	6	-1	1	0	wand_07s.jpg	0	0.0	0	221.169941514992	221.219924643379	0.0499831283868843	235692
235.792	50	575	0	0	chest1	319	266	1	stimuli\chest1\chest1_04s.jpg	3	-1	1	0	chest1_04s.jpg	0	0.0	0	221.26994409937302	221.31992454585603	0.0499804464834597	235792
235.892	50	576	0	0	mustache	1043	267	1	stimuli\mustache\mustache_08s.jpg	7	-1	1	0	mustache_08s.jpg	0	0.0	0	221.36994668375198	221.419927374045	0.0499806902935234	235892
235.992	50	577	0	0	guitar	723	268	1	stimuli\guitar\guitar_09n.jpg	8	-1	1	0	guitar_09n.jpg	0	0.0	0	221.46994975575	221.519931665091	0.0499819093402039	235992
236.092	50	578	0	0	football_helmet	630	269	1	stimuli\football_helmet\football_helmet_10s.jpg	9	-1	1	0	football_helmet_10s.jpg	0	0.0	0	221.569953559178	221.619934737089	0.0499811779118318	236092
236.192	50	579	0	0	handkerchief	747	270	1	stimuli\handkerchief\handkerchief_05s.jpg	4	-1	1	0	handkerchief_05s.jpg	0	0.0	0	221.669954193083	221.719936346231	0.0499821531484486	236192
236.292	50	580	0	0	watermelon	1793	271	1	stimuli\watermelon\watermelon_11s.jpg	10	-1	1	0	watermelon_11s.jpg	0	0.0	0	221.769956046035	221.819934054423	0.0499780083882797	236292
236.392	50	581	0	0	dumpster	533	272	1	stimuli\dumpster\dumpster_09s.jpg	8	-1	1	0	dumpster_09s.jpg	0	0.0	0	221.869954973274	221.91993493213698	0.0499799588633323	236392
236.492	50	582	0	0	bag	54	273	1	stimuli\bag\bag_03s.jpg	2	-1	1	0	bag_03s.jpg	0	0.0	0	221.96995414432098	222.01994507460898	0.0499909302889137	236492
236.592	50	583	0	0	rosary	1333	274	1	stimuli\rosary\rosary_11s.jpg	10	-1	1	0	rosary_11s.jpg	0	0.0	0	222.069964530603	222.119944977087	0.0499804464834597	236592
236.692	50	584	0	0	acorn	3	275	1	stimuli\acorn\acorn_10s.jpg	9	-1	1	0	acorn_10s.jpg	0	0.0	0	222.169964433078	222.219944879562	0.0499804464834597	236692
236.792	50	585	0	0	revolving_door	1305	276	1	stimuli\revolving_door\revolving_door_10s.jpg	9	-1	1	0	revolving_door_10s.jpg	0	0.0	0	222.26996872412602	222.319954046798	0.0499853226720006	236792
236.892	50	586	0	0	file2	584	277	1	stimuli\file2\file2_09s.jpg	8	-1	1	0	file2_09s.jpg	0	0.0	0	222.36997155231398	222.41995370546502	0.0499821531502675	236892
236.992	50	587	0	0	mallet	962	278	1	stimuli\mallet\mallet_03s.jpg	2	-1	1	0	mallet_03s.jpg	0	0.0	0	222.46997584336003	222.519956777463	0.0499809341035871	236992
237.092	50	588	0	0	lightning_bug	929	279	1	stimuli\lightning_bug\lightning_bug_08s.jpg	7	-1	1	0	lightning_bug_08s.jpg	0	0.0	0	222.569982816311	222.61995741136698	0.0499745950564829	237092
237.192	50	589	0	0	slipper	1468	280	1	stimuli\slipper\slipper_01b.jpg	0	-1	1	0	slipper_01b.jpg	0	0.0	0	222.669978086407	222.71995682622398	0.0499787398166518	237192
237.292	50	590	0	0	bear	105	281	1	stimuli\bear\bear_06n.jpg	5	-1	1	0	bear_06n.jpg	0	0.0	0	222.769974819361	222.819968431553	0.0499936121923383	237292
237.392	50	591	0	0	soy_sauce	1500	282	1	stimuli\soy_sauce\soy_sauce_12s.jpg	11	-1	1	1	soy_sauce_12s.jpg	0	0.0	0	222.86998618087998	222.919966139745	0.0499799588651513	237392
237.492	50	592	0	0	banjo	68	283	1	stimuli\banjo\banjo_04s.jpg	3	-1	1	0	banjo_04s.jpg	0	0.0	0	222.96998681478502	223.01997067460098	0.0499838598152564	237492
237.592	50	593	0	0	ramp	1283	284	1	stimuli\ramp\ramp_09s.jpg	8	-1	1	0	ramp_09s.jpg	0	0.0	0	223.06999354392602	223.11997374659902	0.04998020267339599	237592
237.692	50	594	0	0	submarine	1577	285	1	stimuli\submarine\submarine_12s.jpg	11	-1	1	0	submarine_12s.jpg	1	0.341922252096992	1	223.16999295878298	223.219974624313	0.0499816655301402	237692
237.792	50	595	0	0	wax	1795	286	1	stimuli\wax\wax_04s.jpg	3	-1	1	0	wax_04s.jpg	0	0.0	0	223.26999408030701	223.319975258219	0.0499811779118318	237792
237.892	50	596	0	0	footbath	631	287	1	stimuli\footbath\footbath_09s.jpg	8	-1	1	0	footbath_09s.jpg	0	0.0	0	223.369992519925	223.419973941647	0.0499814217218955	237892
237.992	50	597	0	0	kangaroo	862	288	1	stimuli\kangaroo\kangaroo_07s.jpg	6	-1	1	0	kangaroo_07s.jpg	0	0.0	0	223.469996567163	223.519980183168	0.0499836160051927	237992
238.092	50	598	0	0	taffy	1615	289	1	stimuli\taffy\taffy_09s.jpg	8	-1	1	0	taffy_09s.jpg	0	0.0	0	223.570010366777	223.61998569326198	0.049975326484855004	238092
238.192	50	599	0	0	locker	941	290	1	stimuli\locker\locker_03s.jpg	2	-1	1	0	locker_03s.jpg	0	0.0	0	223.67000100449502	223.719984132882	0.0499831283868843	238192
238.292	50	600	0	0	fence	575	291	1	stimuli\fence\fence_12s.jpg	11	-1	1	0	fence_12s.jpg	0	0.0	0	223.77000017554198	223.81998598583198	0.049985810290309005	238292
238.392	50	601	0	0	quad	1260	292	1	stimuli\quad\quad_07s.jpg	6	-1	1	0	quad_07s.jpg	0	0.0	0	223.870014218966	223.91999247116502	0.0499782521983434	238392
238.492	50	602	0	0	knife	879	293	1	stimuli\knife\knife_03s.jpg	2	-1	1	0	knife_03s.jpg	0	0.0	0	223.97001192715697	224.020018948868	0.0500070217112807	238492
238.592	50	603	0	0	blouse	144	294	1	stimuli\blouse\blouse_04s.jpg	3	-1	1	0	blouse_04s.jpg	0	0.0	0	224.07004718200199	224.120009098968	0.0499619169659127	238592
238.692	50	604	0	0	scaffolding	1370	295	1	stimuli\scaffolding\scaffolding_12n.jpg	11	-1	1	0	scaffolding_12n.jpg	0	0.0	0	224.17002099686798	224.22000997668098	0.0499889798138611	238692
238.792	50	605	0	0	hotplate	806	296	1	stimuli\hotplate\hotplate_08s.jpg	7	-1	1	0	hotplate_08s.jpg	0	0.0	0	224.270021874581	224.320008416302	0.0499865417205001	238792
