onset	duration	eventnumber	blocksequencenumber	isteststim	object	objectnumber	presentationnumber	sequencenumber	stim	stimnumber	teststimnumber	withinsequencenumber	istarget	stimname	response	rt	correct	time_stimon	time_stimoff	stimdur	sample
50.84	50	0	0	0	chive	337	0	0	stimuli\chive\chive_11s.jpg	10	-1	0	0	chive_11s.jpg	0	0.0	0	235.699925199267	235.749891992422	0.0499667931544536	50840
50.94	50	1	0	0	juicer2	856	1	0	stimuli\juicer2\juicer2_08s.jpg	7	-1	0	0	juicer2_08s.jpg	0	0.0	0	235.799927783646	235.849905548224	0.04997776457821599	50940
51.04	50	2	0	0	shears	1412	2	0	stimuli\shears\shears_05s.jpg	4	-1	0	0	shears_05s.jpg	0	0.0	0	235.899907937557	235.949895942133	0.0499880045754253	51040
51.14	50	3	0	0	zipper	1852	3	0	stimuli\zipper\zipper_02s.jpg	1	-1	0	0	zipper_02s.jpg	0	0.0	0	235.99994075430698	236.049895113181	0.0499543588739471	51140
51.24	50	4	0	0	refrigerator	1300	4	0	stimuli\refrigerator\refrigerator_07s.jpg	6	-1	0	0	refrigerator_07s.jpg	0	0.0	0	236.099918226315	236.14989404042004	0.0499758141049824	51240
51.34	50	5	0	0	fencepost	576	5	0	stimuli\fencepost\fencepost_07s.jpg	6	-1	0	0	fencepost_07s.jpg	0	0.0	0	236.19994031545102	236.25054125694402	0.0506009414930304	51340
51.44	50	6	0	0	mast	981	6	0	stimuli\mast\mast_04s.jpg	3	-1	0	0	mast_04s.jpg	0	0.0	0	236.299913398889	236.349904085368	0.049990686478849994	51440
51.54	50	7	0	0	tumbleweed	1727	7	0	stimuli\tumbleweed\tumbleweed_11s.jpg	10	-1	0	0	tumbleweed_11s.jpg	0	0.0	0	236.39994158325902	236.44992178593398	0.049980202675214996	51540
51.64	50	8	0	0	croissant	442	8	0	stimuli\croissant\croissant_03s.jpg	2	-1	0	0	croissant_03s.jpg	0	0.0	0	236.49994611811402	236.54992558936297	0.0499794712486619	51640
51.74	50	9	0	0	tape_measure	1623	9	0	stimuli\tape_measure\tape_measure_11s.jpg	10	-1	0	0	tape_measure_11s.jpg	0	0.0	0	236.599960649157	236.649929148978	0.0499684998212615	51740
51.84	50	10	0	0	marble	972	10	0	stimuli\marble\marble_07s.jpg	6	-1	0	0	marble_07s.jpg	0	0.0	0	236.699950555449	236.749927832407	0.0499772769580886	51840
51.94	50	11	0	0	thumbtack	1654	11	0	stimuli\thumbtack\thumbtack_12s.jpg	11	-1	0	0	thumbtack_12s.jpg	0	0.0	0	236.79993509793	236.849914081555	0.0499789836248965	51940
52.04	50	12	0	0	nail_polish	1049	12	0	stimuli\nail_polish\nail_polish_07s.jpg	6	-1	0	0	nail_polish_07s.jpg	0	0.0	0	236.89995255468602	236.94993568307098	0.0499831283850654	52040
52.14	50	13	0	0	coconut	375	13	0	stimuli\coconut\coconut_11s.jpg	10	-1	0	0	coconut_11s.jpg	0	0.0	0	236.999960015255	237.049922907459	0.0499628922043485	52140
52.24	50	14	0	0	muff	1034	14	0	stimuli\muff\muff_10s.jpg	9	-1	0	0	muff_10s.jpg	0	0.0	0	237.09994309488	237.149940851832	0.0499977569525072	52240
52.34	50	15	0	0	orangutan	1080	15	0	stimuli\orangutan\orangutan_04s.jpg	3	-1	0	0	orangutan_04s.jpg	0	0.0	0	237.199964940206	237.24992685717004	0.0499619169640937	52340
52.44	50	16	0	0	dial	483	16	0	stimuli\dial\dial_06s.jpg	5	-1	0	0	dial_06s.jpg	0	0.0	0	237.29994606935398	237.349945776783	0.0499997074293788	52440
52.54	50	17	0	0	tadpole	1614	17	0	stimuli\tadpole\tadpole_11s.jpg	10	-1	0	0	tadpole_11s.jpg	0	0.0	0	237.399965720393	237.449948117352	0.0499823969585123	52540
52.64	50	18	0	0	air_pump	6	18	0	stimuli\air_pump\air_pump_11s.jpg	10	-1	0	0	air_pump_11s.jpg	0	0.0	0	237.49994343621103	237.549937779833	0.0499943436225294	52640
52.74	50	19	0	0	anvil	28	19	0	stimuli\anvil\anvil_11s.jpg	10	-1	0	0	anvil_11s.jpg	0	0.0	0	237.59995406630298	237.649953286113	0.0499992198092514	52740
52.84	50	20	0	0	hatchet	759	20	0	stimuli\hatchet\hatchet_11s.jpg	10	-1	0	0	hatchet_11s.jpg	0	0.0	0	237.699976643056	237.749953676208	0.0499770331516629	52840
52.94	50	21	0	0	platypus	1198	21	0	stimuli\platypus\platypus_11s.jpg	10	-1	0	0	platypus_11s.jpg	0	0.0	0	237.799958747444	237.849954553923	0.0499958064792736	52940
53.04	50	22	0	0	kiwi	876	22	0	stimuli\kiwi\kiwi_10s.jpg	9	-1	0	1	kiwi_10s.jpg	0	0.0	0	237.899981811817	237.949963721156	0.0499819093383849	53040
53.14	50	23	0	0	blinder	141	23	0	stimuli\blinder\blinder_10s.jpg	9	-1	0	0	blinder_10s.jpg	0	0.0	0	237.999980007626	238.04994606935398	0.0499660617279005	53140
53.24	50	24	0	0	centrifuge	296	24	0	stimuli\centrifuge\centrifuge_05s.jpg	4	-1	0	0	centrifuge_05s.jpg	0	0.0	0	238.099971864391	238.14997571657997	0.0500038521895476	53240
53.34	50	25	0	0	tapestry	1625	25	0	stimuli\tapestry\tapestry_02s.jpg	1	-1	0	0	tapestry_02s.jpg	1	0.300166960700153	1	238.19998834591	238.24997513143902	0.0499867855287448	53340
53.44	50	26	0	0	staple_gun	1538	26	0	stimuli\staple_gun\staple_gun_04s.jpg	3	-1	0	0	staple_gun_04s.jpg	0	0.0	0	238.299993856002	238.349973571057	0.0499797150550876	53440
53.54	50	27	0	0	dashboard	475	27	0	stimuli\dashboard\dashboard_03s.jpg	2	-1	0	0	dashboard_03s.jpg	0	0.0	0	238.39999887847802	238.449980544006	0.0499816655283212	53540
53.64	50	28	0	0	deer	476	28	0	stimuli\deer\deer_09s.jpg	8	-1	0	0	deer_09s.jpg	0	0.0	0	238.499976838106	238.54995679696702	0.0499799588615133	53640
53.74	50	29	0	0	ship	1421	29	0	stimuli\ship\ship_05s.jpg	4	-1	0	0	ship_05s.jpg	0	0.0	0	238.599984298675	238.64996401372997	0.0499797150550876	53740
53.84	50	30	0	0	bassoon	86	30	0	stimuli\bassoon\bassoon_01b.jpg	0	-1	0	0	bassoon_01b.jpg	0	0.0	0	238.700008338285	238.749988784766	0.0499804464816407	53840
53.94	50	31	0	0	landmine	894	31	0	stimuli\landmine\landmine_11s.jpg	10	-1	0	0	landmine_11s.jpg	0	0.0	0	238.80000629028302	238.849988931051	0.0499826407685759	53940
54.04	50	32	0	0	speedometer	1512	32	0	stimuli\speedometer\speedometer_04s.jpg	3	-1	0	0	speedometer_04s.jpg	0	0.0	0	238.90000838704498	238.94998883352997	0.0499804464852787	54040
54.14	50	33	0	0	subway	1578	33	0	stimuli\subway\subway_11s.jpg	10	-1	0	0	subway_11s.jpg	0	0.0	0	239.000010971424	239.04997581410498	0.04996484268122	54140
54.24	50	34	0	0	watering_can	1792	34	0	stimuli\watering_can\watering_can_11s.jpg	10	-1	0	0	watering_can_11s.jpg	0	0.0	0	239.100017944376	239.14998595657698	0.0499680122011341	54240
54.34	50	35	0	0	ironing_board	833	35	0	stimuli\ironing_board\ironing_board_03s.jpg	2	-1	0	0	ironing_board_03s.jpg	0	0.0	0	239.19999639162103	239.249980495246	0.0499841036253201	54340
54.44	50	36	0	0	quesadilla	1261	36	0	stimuli\quesadilla\quesadilla_02s.jpg	1	-1	0	0	quesadilla_02s.jpg	0	0.0	0	239.300002389333	239.35000087771598	0.0499984883826983	54440
54.54	50	37	0	0	lavender	904	37	0	stimuli\lavender\lavender_09s.jpg	8	-1	0	0	lavender_09s.jpg	0	0.0	0	239.400025453706	239.44998883352997	0.0499633798244759	54540
54.64	50	38	0	0	bank	69	38	0	stimuli\bank\bank_01b.jpg	0	-1	0	0	bank_01b.jpg	0	0.0	0	239.500008045714	239.55000799695	0.0499999512358045	54640
54.74	50	39	0	0	ginger	673	39	0	stimuli\ginger\ginger_06s.jpg	5	-1	0	0	ginger_06s.jpg	0	0.0	0	239.60002915961002	239.65001082513803	0.0499816655283212	54740
54.84	50	40	0	0	panther	1106	40	0	stimuli\panther\panther_03s.jpg	2	-1	0	0	panther_03s.jpg	0	0.0	0	239.700035644939	239.74999488000302	0.049959235064306995	54840
54.94	50	41	0	0	moose	1018	41	0	stimuli\moose\moose_07s.jpg	6	-1	0	0	moose_07s.jpg	0	0.0	0	239.800019455994	239.84999990247897	0.0499804464852787	54940
55.04	50	42	0	0	wine_bottle	1824	42	0	stimuli\wine_bottle\wine_bottle_05s.jpg	4	-1	0	0	wine_bottle_05s.jpg	0	0.0	0	239.900038619417	239.950016383995	0.04997776457821599	55040
55.14	50	43	0	0	cake	237	43	0	stimuli\cake\cake_08s.jpg	7	-1	0	0	cake_08s.jpg	0	0.0	0	240.000041691415	240.05002091884998	0.0499792274349602	55140
55.24	50	44	0	0	rolling_pin	1328	44	0	stimuli\rolling_pin\rolling_pin_10s.jpg	9	-1	0	0	rolling_pin_10s.jpg	0	0.0	0	240.100040618654	240.15002252799198	0.0499819093383849	55240
55.34	50	45	0	0	harness	754	45	0	stimuli\harness\harness_05s.jpg	4	-1	0	0	harness_05s.jpg	0	0.0	0	240.200046372556	240.250026575228	0.049980202671577	55340
55.44	50	46	0	0	backdrop	47	46	0	stimuli\backdrop\backdrop_06s.jpg	5	-1	0	0	backdrop_06s.jpg	0	0.0	0	240.300029208371	240.35002867198997	0.0499994636193151	55440
55.54	50	47	0	0	chess_piece	317	47	0	stimuli\chess_piece\chess_piece_04s.jpg	3	-1	0	0	chess_piece_04s.jpg	0	0.0	0	240.400047640363	240.450032963035	0.0499853226720006	55540
55.64	50	48	0	0	sponge	1517	48	0	stimuli\sponge\sponge_09s.jpg	8	-1	0	0	sponge_09s.jpg	0	0.0	0	240.500034864752	240.550031158848	0.049996294095763	55640
55.74	50	49	0	0	tongs	1674	49	0	stimuli\tongs\tongs_01s.jpg	0	-1	0	0	tongs_01s.jpg	0	0.0	0	240.60005524721802	240.650033499416	0.0499782521983434	55740
55.84	50	50	0	0	box	181	50	0	stimuli\box\box_10s.jpg	9	-1	0	0	box_10s.jpg	1	0.0	0	240.700058806837	240.750022186661	0.0499633798244759	55840
55.94	50	51	0	0	candy	255	51	0	stimuli\candy\candy_01b.jpg	0	-1	0	0	candy_01b.jpg	0	0.0	0	240.80006090359902	240.85002403961002	0.0499631360107742	55940
56.04	50	52	0	0	tick	1656	52	0	stimuli\tick\tick_10s.jpg	9	-1	0	0	tick_10s.jpg	0	0.0	0	240.90006275655102	240.950040277319	0.0499775207681523	56040
56.14	50	53	0	0	arugula	40	53	0	stimuli\arugula\arugula_02s.jpg	1	-1	0	0	arugula_02s.jpg	0	0.0	0	241.00006192759602	241.05004139884102	0.0499794712450239	56140
56.24	50	54	0	0	lighter	928	54	0	stimuli\lighter\lighter_06s.jpg	5	-1	0	0	lighter_06s.jpg	0	0.0	0	241.10005841674098	241.15004666512698	0.04998824838548901	56240
56.34	50	55	0	0	chimney	329	55	0	stimuli\chimney\chimney_01b.jpg	0	-1	0	0	chimney_01b.jpg	0	0.0	0	241.20006831540402	241.25005119998198	0.0499828845786396	56340
56.44	50	56	0	0	peacock	1130	56	0	stimuli\peacock\peacock_10s.jpg	9	-1	0	0	peacock_10s.jpg	0	0.0	0	241.30007504454602	241.35005451579102	0.0499794712450239	56440
56.54	50	57	0	0	soda_fountain	1491	57	0	stimuli\soda_fountain\soda_fountain_10s.jpg	9	-1	0	0	soda_fountain_10s.jpg	0	0.0	0	241.40007689749802	241.45005758778998	0.0499806902917044	56540
56.64	50	58	0	0	grape	702	58	0	stimuli\grape\grape_01b.jpg	0	-1	0	1	grape_01b.jpg	0	0.0	0	241.500083870447	241.550040423605	0.0499565531572443	56640
56.74	50	59	0	0	icemaker	821	59	0	stimuli\icemaker\icemaker_05s.jpg	4	-1	0	0	icemaker_05s.jpg	0	0.0	0	241.600081578639	241.650063975598	0.0499823969585123	56740
56.84	50	60	0	0	meerkat	992	60	0	stimuli\meerkat\meerkat_02s.jpg	1	-1	0	0	meerkat_02s.jpg	0	0.0	0	241.70008196873502	241.750048030459	0.0499660617242625	56840
56.94	50	61	0	0	chariot	309	61	0	stimuli\chariot\chariot_02s.jpg	1	-1	0	0	chariot_02s.jpg	1	0.306148581370508	1	241.80008357787702	241.85007231387902	0.0499887360019784	56940
57.04	50	62	0	0	coffeemaker	382	62	0	stimuli\coffeemaker\coffeemaker_03s.jpg	2	-1	0	0	coffeemaker_03s.jpg	0	0.0	0	241.900096158442	241.950055881123	0.0499597226807964	57040
57.14	50	63	0	0	sauce	1362	63	0	stimuli\sauce\sauce_05s.jpg	4	-1	0	0	sauce_05s.jpg	0	0.0	0	242.00009094092098	242.050070655976	0.0499797150550876	57140
57.24	50	64	0	0	barrel	76	64	0	stimuli\barrel\barrel_09s.jpg	8	-1	0	0	barrel_09s.jpg	0	0.0	0	242.100073289115	242.150073484165	0.0500001950495061	57240
57.34	50	65	0	0	mallet	962	65	0	stimuli\mallet\mallet_08s.jpg	7	-1	0	0	mallet_08s.jpg	0	0.0	0	242.200098303965	242.25007436188	0.0499760579150461	57340
57.44	50	66	0	0	walker1	1773	66	0	stimuli\walker1\walker1_01b.jpg	0	-1	0	0	walker1_01b.jpg	0	0.0	0	242.300098937871	242.35006085483502	0.0499619169640937	57440
57.54	50	67	0	0	toothbrush	1679	67	0	stimuli\toothbrush\toothbrush_06s.jpg	5	-1	0	0	toothbrush_06s.jpg	0	0.0	0	242.400095427012	242.450075629687	0.049980202675214996	57540
57.64	50	68	0	0	dessert	481	68	0	stimuli\dessert\dessert_03s.jpg	2	-1	0	0	dessert_03s.jpg	0	0.0	0	242.500096304728	242.55007748264	0.0499811779118318	57640
57.74	50	69	0	0	board	152	69	0	stimuli\board\board_04s.jpg	3	-1	0	0	board_04s.jpg	0	0.0	0	242.600104740533	242.650070802261	0.0499660617279005	57740
57.84	50	70	0	0	swimsuit	1597	70	0	stimuli\swimsuit\swimsuit_06s.jpg	5	-1	0	0	swimsuit_06s.jpg	0	0.0	0	242.70011146967602	242.750083139017	0.0499716693411756	57840
57.94	50	71	0	0	coop	404	71	0	stimuli\coop\coop_05s.jpg	4	-1	0	0	coop_05s.jpg	0	0.0	0	242.800104789298	242.85004378817402	0.0499389988763141	57940
58.04	50	72	0	0	coyote	427	72	0	stimuli\coyote\coyote_10s.jpg	9	-1	0	0	coyote_10s.jpg	0	0.0	0	242.900108592723	242.950089039208	0.0499804464852787	58040
58.14	50	73	0	0	scissors	1379	73	0	stimuli\scissors\scissors_12s.jpg	11	-1	0	0	scissors_12s.jpg	0	0.0	0	243.000108739008	243.05007577597303	0.0499670369645173	58140
58.24	50	74	0	0	terrarium	1644	74	0	stimuli\terrarium\terrarium_03s.jpg	2	-1	0	0	terrarium_03s.jpg	0	0.0	0	243.10011546815102	243.150080798448	0.0499653302977094	58240
58.34	50	75	0	0	sailboat	1347	75	0	stimuli\sailboat\sailboat_07s.jpg	6	-1	0	0	sailboat_07s.jpg	0	0.0	0	243.200114395389	243.250096792348	0.0499823969585123	58340
58.44	50	76	0	0	steamroller	1545	76	0	stimuli\steamroller\steamroller_01b.jpg	0	-1	0	0	steamroller_01b.jpg	0	0.0	0	243.300102351201	243.350098889106	0.0499965379058267	58440
58.54	50	77	0	0	stopwatch	1562	77	0	stimuli\stopwatch\stopwatch_09s.jpg	8	-1	0	0	stopwatch_09s.jpg	0	0.0	0	243.400125903194	243.450102448725	0.0499765455315355	58540
58.64	50	78	0	0	pita	1189	78	0	stimuli\pita\pita_01b.jpg	0	-1	0	0	pita_01b.jpg	0	0.0	0	243.500124586622	243.550105520724	0.0499809341017681	58640
58.74	50	79	0	0	soldering_iron	1494	79	0	stimuli\soldering_iron\soldering_iron_04s.jpg	3	-1	0	0	soldering_iron_04s.jpg	0	0.0	0	243.60012448909802	243.65011200605701	0.0499875169589359	58740
58.84	50	80	0	0	blower	145	80	0	stimuli\blower\blower_04s.jpg	3	-1	0	0	blower_04s.jpg	0	0.0	0	243.70012707348	243.750095817108	0.0499687436276872	58840
58.94	50	81	0	0	can	250	81	0	stimuli\can\can_10s.jpg	9	-1	0	0	can_10s.jpg	0	0.0	0	243.80013087690497	243.850114736721	0.0499838598152564	58940
59.04	50	82	0	0	penlight	1147	82	0	stimuli\penlight\penlight_01b.jpg	0	-1	0	0	penlight_01b.jpg	0	0.0	0	243.900133948904	243.950121465863	0.0499875169589359	59040
59.14	50	83	0	0	marker	975	83	0	stimuli\marker\marker_12s.jpg	11	-1	0	0	marker_12s.jpg	0	0.0	0	244.00013872757003	244.050120636908	0.0499819093383849	59140
59.24	50	84	0	0	pendulum	1144	84	0	stimuli\pendulum\pendulum_11s.jpg	10	-1	0	0	pendulum_11s.jpg	0	0.0	0	244.100145700519	244.150121027003	0.049975326484855004	59240
59.34	50	85	0	0	towel_rack	1693	85	0	stimuli\towel_rack\towel_rack_09s.jpg	8	-1	0	0	towel_rack_09s.jpg	0	0.0	0	244.200142433474	244.250094598061	0.0499521645870118	59340
59.44	50	86	0	0	hook2	794	86	0	stimuli\hook2\hook2_08s.jpg	7	-1	0	0	hook2_08s.jpg	0	0.0	0	244.30013087690497	244.350129852905	0.0499989759991877	59440
59.54	50	87	0	0	corkscrew	411	87	0	stimuli\corkscrew\corkscrew_04s.jpg	3	-1	0	0	corkscrew_04s.jpg	0	0.0	0	244.40011932033698	244.450100985869	0.0499816655319592	59540
59.64	50	88	0	0	grain	698	88	0	stimuli\grain\grain_02s.jpg	1	-1	0	0	grain_02s.jpg	0	0.0	0	244.500124099002	244.550105276914	0.0499811779118318	59640
59.74	50	89	0	0	chainsaw	299	89	0	stimuli\chainsaw\chainsaw_01b.jpg	0	-1	0	0	chainsaw_01b.jpg	0	0.0	0	244.600154477659	244.650131267001	0.0499767893415992	59740
59.84	50	90	0	0	paintbrush	1097	90	0	stimuli\paintbrush\paintbrush_02s.jpg	1	-1	0	0	paintbrush_02s.jpg	0	0.0	0	244.700158524895	244.75013458281003	0.0499760579150461	59840
59.94	50	91	0	0	jalapeno	838	91	0	stimuli\jalapeno\jalapeno_05s.jpg	4	-1	0	0	jalapeno_05s.jpg	0	0.0	0	244.80015574546601	244.85014106813802	0.0499853226720006	59940
60.04	50	92	0	0	firewood	597	92	0	stimuli\firewood\firewood_11s.jpg	10	-1	0	0	firewood_11s.jpg	0	0.0	0	244.900145407948	244.95013975157102	0.0499943436225294	60040
60.14	50	93	0	0	handkerchief	747	93	0	stimuli\handkerchief\handkerchief_10s.jpg	9	-1	0	0	handkerchief_10s.jpg	0	0.0	0	245.000154087564	245.05013014547902	0.0499760579150461	60140
60.24	50	94	0	0	life_jacket	924	94	0	stimuli\life_jacket\life_jacket_10s.jpg	9	-1	0	0	life_jacket_10s.jpg	0	0.0	0	245.100162035753	245.150137362238	0.049975326484855004	60240
60.34	50	95	0	0	mouse1	1026	95	0	stimuli\mouse1\mouse1_06s.jpg	5	-1	0	0	mouse1_06s.jpg	0	0.0	0	245.200160231561	245.250129706619	0.0499694750578783	60340
60.44	50	96	0	0	honeypot	790	96	0	stimuli\honeypot\honeypot_03s.jpg	2	-1	0	0	honeypot_03s.jpg	0	0.0	0	245.300153551183	245.350134972905	0.0499814217218955	60440
60.54	50	97	0	0	furnace	651	97	0	stimuli\furnace\furnace_02s.jpg	1	-1	0	0	furnace_02s.jpg	0	0.0	0	245.400173689843	245.450154623944	0.0499809341017681	60540
60.64	50	98	0	0	watermelon	1793	98	0	stimuli\watermelon\watermelon_11s.jpg	10	-1	0	0	watermelon_11s.jpg	0	0.0	0	245.500173836128	245.55015477023	0.0499809341017681	60640
60.74	50	99	0	0	hood	791	99	0	stimuli\hood\hood_06s.jpg	5	-1	0	0	hood_06s.jpg	0	0.0	0	245.600181052887	245.650163693655	0.0499826407685759	60740
60.84	50	100	0	0	eclair	544	100	0	stimuli\eclair\eclair_08s.jpg	7	-1	0	0	eclair_08s.jpg	0	0.0	0	245.700180223936	245.750160670417	0.0499804464816407	60840
60.94	50	101	0	0	bag	54	101	0	stimuli\bag\bag_04s.jpg	3	-1	0	0	bag_04s.jpg	0	0.0	0	245.800181833078	245.850165449083	0.0499836160051927	60940
61.04	50	102	0	0	tree	1708	102	0	stimuli\tree\tree_07s.jpg	6	-1	0	0	tree_07s.jpg	0	0.0	0	245.90018783078997	245.95016510775199	0.0499772769617266	61040
61.14	50	103	0	0	brake	191	103	0	stimuli\brake\brake_02s.jpg	1	-1	0	0	brake_02s.jpg	0	0.0	0	246.00018675802897	246.050154038803	0.04996728077458099	61140
61.24	50	104	0	0	chickpea	325	104	0	stimuli\chickpea\chickpea_10s.jpg	9	-1	0	0	chickpea_10s.jpg	0	0.0	0	246.100190561454	246.150177590793	0.0499870293388085	61240
61.34	50	105	0	0	slot_machine	1470	105	0	stimuli\slot_machine\slot_machine_12s.jpg	11	-1	0	0	slot_machine_12s.jpg	0	0.0	0	246.200196802976	246.25016457137102	0.0499677683947084	61340
61.44	50	106	0	0	sling	1466	106	0	stimuli\sling\sling_02s.jpg	1	-1	0	0	sling_02s.jpg	0	0.0	0	246.300195974025	246.350204458591	0.0500084845662059	61440
61.54	50	107	0	0	money	1015	107	0	stimuli\money\money_07s.jpg	6	-1	0	0	money_07s.jpg	0	0.0	0	246.400198558404	246.45017778584202	0.0499792274385982	61540
61.64	50	108	0	0	air_mattress	5	108	0	stimuli\air_mattress\air_mattress_08s.jpg	7	-1	0	0	air_mattress_08s.jpg	0	0.0	0	246.500184319935	246.550181345458	0.0499970255223161	61640
61.74	50	109	0	0	missile	1006	109	0	stimuli\missile\missile_10s.jpg	9	-1	0	0	missile_10s.jpg	0	0.0	0	246.60020250811797	246.65018539269698	0.0499828845786396	61740
61.84	50	110	0	0	block	143	110	0	stimuli\block\block_02s.jpg	1	-1	0	0	block_02s.jpg	0	0.0	0	246.70019022012298	246.750187733265	0.0499975131424435	61840
61.94	50	111	0	0	payphone	1127	111	0	stimuli\payphone\payphone_05s.jpg	4	-1	0	0	payphone_05s.jpg	0	0.0	0	246.80020865211603	246.85019348716702	0.0499848350518732	61940
62.04	50	112	0	0	porthole	1227	112	0	stimuli\porthole\porthole_04s.jpg	3	-1	0	0	porthole_04s.jpg	0	0.0	0	246.900215868875	246.950191682979	0.0499758141049824	62040
62.14	50	113	0	0	stair	1532	113	0	stimuli\stair\stair_10s.jpg	9	-1	0	0	stair_10s.jpg	0	0.0	0	247.00019821707198	247.050179151174	0.0499809341017681	62140
62.24	50	114	0	0	oatmeal	1069	114	0	stimuli\oatmeal\oatmeal_12s.jpg	11	-1	0	0	oatmeal_12s.jpg	0	0.0	0	247.100222256682	247.150197583167	0.049975326484855004	62240
62.34	50	115	0	0	crystal2	454	115	0	stimuli\crystal2\crystal2_12s.jpg	11	-1	0	0	crystal2_12s.jpg	0	0.0	0	247.20020338582995	247.250199192309	0.0499958064792736	62340
62.44	50	116	0	0	pig	1170	116	0	stimuli\pig\pig_07s.jpg	6	-1	0	0	pig_07s.jpg	0	0.0	0	247.300221574016	247.350203483355	0.0499819093383849	62440
62.54	50	117	0	0	puddle	1247	117	0	stimuli\puddle\puddle_05s.jpg	4	-1	0	0	puddle_05s.jpg	0	0.0	0	247.400227815535	247.450189001076	0.0499611855411786	62540
62.64	50	118	0	0	fuse	652	118	0	stimuli\fuse\fuse_04s.jpg	3	-1	0	0	fuse_04s.jpg	0	0.0	0	247.50021235802	247.55021182163898	0.0499994636193151	62640
62.74	50	119	0	0	peg	1139	119	0	stimuli\peg\peg_08s.jpg	7	-1	0	0	peg_08s.jpg	0	0.0	0	247.600228595726	247.650211480304	0.0499828845786396	62740
62.84	50	120	0	0	raft	1275	120	0	stimuli\raft\raft_10s.jpg	9	-1	0	0	raft_10s.jpg	0	0.0	0	247.700238738198	247.750217965637	0.0499792274385982	62840
62.94	50	121	0	0	button1	230	121	0	stimuli\button1\button1_12s.jpg	11	-1	0	0	button1_12s.jpg	0	0.0	0	247.800221086396	247.850218599538	0.0499975131424435	62940
63.04	50	122	0	0	coat_rack	370	122	0	stimuli\coat_rack\coat_rack_12s.jpg	11	-1	0	0	coat_rack_12s.jpg	0	0.0	0	247.900237324106	247.95021777058702	0.0499804464816407	63040
63.14	50	123	0	0	scale	1371	123	0	stimuli\scale\scale_02s.jpg	1	-1	0	0	scale_02s.jpg	0	0.0	0	248.00023966467398	248.05020377592498	0.04996411125102901	63140
63.24	50	124	0	0	cinnamon	348	124	0	stimuli\cinnamon\cinnamon_08n.jpg	7	-1	0	0	cinnamon_08n.jpg	0	0.0	0	248.100241761436	248.150224646015	0.0499828845786396	63240
63.34	50	125	0	0	ramp	1283	125	0	stimuli\ramp\ramp_04s.jpg	3	-1	0	0	ramp_04s.jpg	0	0.0	0	248.200247271528	248.250227230394	0.0499799588651513	63340
63.44	50	126	0	0	grenade	713	126	0	stimuli\grenade\grenade_11s.jpg	10	-1	0	0	grenade_11s.jpg	0	0.0	0	248.300250587337	248.350237616676	0.0499870293388085	63440
63.54	50	127	0	0	treasure	1707	127	0	stimuli\treasure\treasure_03s.jpg	2	-1	0	0	treasure_03s.jpg	0	0.0	0	248.40025146505297	248.450230936298	0.0499794712450239	63540
63.64	50	128	0	0	glove	680	128	0	stimuli\glove\glove_08s.jpg	7	-1	0	0	glove_08s.jpg	0	0.0	0	248.500235276104	248.550231570203	0.04999629409940099	63640
63.74	50	129	0	0	gravel	709	129	0	stimuli\gravel\gravel_08s.jpg	7	-1	0	0	gravel_08s.jpg	0	0.0	0	248.60025785286098	248.650235617439	0.04997776457821599	63740
63.84	50	130	0	0	stomach	1560	130	0	stimuli\stomach\stomach_10s.jpg	9	-1	0	0	stomach_10s.jpg	0	0.0	0	248.70025726771598	248.750262826572	0.0500055588563555	63840
63.94	50	131	0	0	popcorn	1223	131	0	stimuli\popcorn\popcorn_05s.jpg	4	-1	0	1	popcorn_05s.jpg	0	0.0	0	248.800244004484	248.85024590619702	0.050001901712675996	63940
64.04	50	132	0	0	food_processor	627	132	0	stimuli\food_processor\food_processor_10s.jpg	9	-1	0	0	food_processor_10s.jpg	0	0.0	0	248.90026560599998	248.95024556486197	0.0499799588615133	64040
64.14	50	133	0	0	domino	503	133	0	stimuli\domino\domino_05s.jpg	4	-1	0	0	domino_05s.jpg	0	0.0	0	249.00026672752202	249.05024497972	0.0499782521983434	64140
64.24	50	134	0	0	buffet	211	134	0	stimuli\buffet\buffet_11s.jpg	10	-1	0	0	buffet_11s.jpg	0	0.0	0	249.10026931190103	249.1502526841	0.049983372198767	64240
64.34	50	135	0	0	cigarette_butt	345	135	0	stimuli\cigarette_butt\cigarette_butt_04s.jpg	3	-1	0	0	cigarette_butt_04s.jpg	1	0.44192361742898406	1	249.200269701996	249.25025258657502	0.0499828845786396	64340
64.44	50	136	0	0	bison	134	136	0	stimuli\bison\bison_10s.jpg	9	-1	0	0	bison_10s.jpg	0	0.0	0	249.300273749235	249.35025346429	0.0499797150550876	64440
64.54	50	137	0	0	toaster	1666	137	0	stimuli\toaster\toaster_08s.jpg	7	-1	0	0	toaster_08s.jpg	0	0.0	0	249.40027706504398	249.45025702390598	0.0499799588615133	64540
64.64	50	138	0	0	clipper1	356	138	0	stimuli\clipper1\clipper1_06s.jpg	5	-1	0	0	clipper1_06s.jpg	0	0.0	0	249.500276967519	249.550242054007	0.0499650864876457	64640
64.74	50	139	0	0	swan	1591	139	0	stimuli\swan\swan_09s.jpg	8	-1	0	0	swan_09s.jpg	0	0.0	0	249.600281258565	249.65026536218997	0.0499841036253201	64740
64.84	50	140	0	0	kneepad	878	140	0	stimuli\kneepad\kneepad_12s.jpg	11	-1	0	0	kneepad_12s.jpg	0	0.0	0	249.700283355327	249.750265508475	0.0499821531484486	64840
64.94	50	141	0	0	headrest	767	141	0	stimuli\headrest\headrest_01b.jpg	0	-1	0	0	headrest_01b.jpg	0	0.0	0	249.800286914942	249.85027126237802	0.0499843474353838	64940
65.04	50	142	0	0	chili	327	142	0	stimuli\chili\chili_06s.jpg	5	-1	0	0	chili_06s.jpg	0	0.0	0	249.900296813608	249.950254829622	0.0499580160139885	65040
65.14	50	143	0	0	seatbelt	1399	143	0	stimuli\seatbelt\seatbelt_03s.jpg	2	-1	0	0	seatbelt_03s.jpg	0	0.0	0	250.000291108467	250.050273261615	0.0499821531484486	65140
65.24	50	144	0	0	barnacle	75	144	0	stimuli\barnacle\barnacle_03s.jpg	2	-1	0	0	barnacle_03s.jpg	0	0.0	0	250.10029247379902	250.150277552661	0.0499850788619369	65240
65.34	50	145	0	0	scorpion	1384	145	0	stimuli\scorpion\scorpion_11n.jpg	10	-1	0	0	scorpion_11n.jpg	0	0.0	0	250.20029554579702	250.250276723709	0.0499811779118318	65340
65.44	50	146	0	0	notebook	1064	146	0	stimuli\notebook\notebook_07s.jpg	6	-1	0	0	notebook_07s.jpg	0	0.0	0	250.300283989229	250.350278576661	0.0499945874325931	65440
65.541	50	147	0	0	walnut	1778	147	0	stimuli\walnut\walnut_11s.jpg	10	-1	0	0	walnut_11s.jpg	0	0.0	0	250.400299983128	250.45028091723	0.0499809341017681	65541
65.641	50	148	0	0	diving_board	494	148	0	stimuli\diving_board\diving_board_03s.jpg	2	-1	0	0	diving_board_03s.jpg	0	0.0	0	250.500301348464	250.550283989229	0.049982640764938	65641
65.741	50	149	0	0	window	1818	149	0	stimuli\window\window_11s.jpg	10	-1	0	0	window_11s.jpg	0	0.0	0	250.600309052839	250.650286817421	0.04997776458185401	65741
65.841	50	150	0	0	chipmunk	334	150	0	stimuli\chipmunk\chipmunk_05s.jpg	4	-1	0	0	chipmunk_05s.jpg	0	0.0	0	250.700304566748	250.750285988466	0.0499814217182575	65841
65.941	50	151	0	0	spoon	1519	151	0	stimuli\spoon\spoon_01b.jpg	0	-1	0	0	spoon_01b.jpg	0	0.0	0	250.800307882553	250.85031002807997	0.0500021455263777	65941
66.041	50	152	0	0	poinsettia	1209	152	0	stimuli\poinsettia\poinsettia_09s.jpg	8	-1	0	0	poinsettia_09s.jpg	0	0.0	0	250.90031509931597	250.95029554579702	0.0499804464816407	66041
66.141	50	153	0	0	appetizer	29	153	0	stimuli\appetizer\appetizer_05s.jpg	4	-1	0	0	appetizer_05s.jpg	0	0.0	0	251.000315977028	251.050282770182	0.0499667931544536	66141
66.241	50	154	0	0	tube_top	1724	154	0	stimuli\tube_top\tube_top_10s.jpg	9	-1	0	0	tube_top_10s.jpg	0	0.0	0	251.100319536647	251.15030144598498	0.0499819093383849	66241
66.341	50	155	0	0	mirror	1005	155	0	stimuli\mirror\mirror_08s.jpg	7	-1	0	0	mirror_08s.jpg	0	0.0	0	251.20032236483502	251.250287207517	0.04996484268122	66341
66.44	50	156	0	0	mug	1036	156	0	stimuli\mug\mug_03s.jpg	2	-1	0	0	mug_03s.jpg	0	0.0	0	251.30030203113	251.350293449035	0.0499914179054031	66440
66.541	50	157	0	0	headset	769	157	0	stimuli\headset\headset_06s.jpg	5	-1	0	0	headset_06s.jpg	0	0.0	0	251.40032655835603	251.450307980078	0.0499814217218955	66541
66.641	50	158	0	0	sausage	1365	158	0	stimuli\sausage\sausage_06s.jpg	5	-1	0	0	sausage_06s.jpg	0	0.0	0	251.500315001791	251.550311783507	0.0499967817158904	66641
66.741	50	159	0	0	door	506	159	0	stimuli\door\door_04s.jpg	3	-1	0	0	door_04s.jpg	0	0.0	0	251.60033489664102	251.650314367886	0.0499794712450239	66741
66.841	50	160	0	0	truck	1720	160	0	stimuli\truck\truck_01b.jpg	0	-1	0	0	truck_01b.jpg	0	0.0	0	251.70031797626498	251.75031646464802	0.0499984883826983	66841
66.941	50	161	0	0	chinchilla	332	161	0	stimuli\chinchilla\chinchilla_11s.jpg	10	-1	0	0	chinchilla_11s.jpg	0	0.0	0	251.800320316837	251.850320511883	0.0500001950458682	66941
67.041	50	162	0	0	pepper2	1150	162	0	stimuli\pepper2\pepper2_01b.jpg	0	-1	0	0	pepper2_01b.jpg	0	0.0	0	251.90033167835603	251.950307004841	0.049975326484855004	67041
67.141	50	163	0	0	wok	1830	163	0	stimuli\wok\wok_11s.jpg	10	-1	0	0	wok_11s.jpg	0	0.0	0	252.000334750355	252.050299349226	0.0499645988711563	67141
67.241	50	164	0	0	laser_pointer	899	164	0	stimuli\laser_pointer\laser_pointer_11s.jpg	10	-1	0	0	laser_pointer_11s.jpg	0	0.0	0	252.10032197473998	252.150332897403	0.0500109226632048	67241
67.341	50	165	0	0	thimble	1649	165	0	stimuli\thimble\thimble_12s.jpg	11	-1	0	0	thimble_12s.jpg	0	0.0	0	252.20033089816602	252.25031110084097	0.049980202675214996	67341
67.441	50	166	0	0	ivy	834	166	0	stimuli\ivy\ivy_08s.jpg	7	-1	0	0	ivy_08s.jpg	0	0.0	0	252.300349817779	252.350333677594	0.0499838598152564	67441
67.541	50	167	0	0	sunflower	1584	167	0	stimuli\sunflower\sunflower_05s.jpg	4	-1	0	0	sunflower_05s.jpg	0	0.0	0	252.400355327871	252.450319195312	0.0499638674409653	67541
67.641	50	168	0	0	spool	1518	168	0	stimuli\spool\spool_05s.jpg	4	-1	0	0	spool_05s.jpg	0	0.0	0	252.50035864367996	252.550340553018	0.0499819093383849	67641
67.741	50	169	0	0	meatball	989	169	0	stimuli\meatball\meatball_12s.jpg	11	-1	0	0	meatball_12s.jpg	0	0.0	0	252.60033197092702	252.650317537409	0.0499855664820643	67741
67.841	50	170	0	0	bell_pepper	117	170	0	stimuli\bell_pepper\bell_pepper_09s.jpg	8	-1	0	0	bell_pepper_09s.jpg	0	0.0	0	252.70033674959302	252.750324266548	0.0499875169552979	67841
67.941	50	171	0	0	fingerprint	589	171	0	stimuli\fingerprint\fingerprint_04s.jpg	3	-1	0	0	fingerprint_04s.jpg	0	0.0	0	252.800337139688	252.85032758235698	0.0499904426687863	67941
68.041	50	172	0	0	beard	106	172	0	stimuli\beard\beard_10s.jpg	9	-1	0	0	beard_10s.jpg	0	0.0	0	252.900347282161	252.95034674578	0.0499994636193151	68041
68.141	50	173	0	0	duct_tape	528	173	0	stimuli\duct_tape\duct_tape_04s.jpg	3	-1	0	0	duct_tape_04s.jpg	0	0.0	0	253.00036668938998	253.05035371872899	0.0499870293388085	68141
68.241	50	174	0	0	salad	1348	174	0	stimuli\salad\salad_12s.jpg	11	-1	0	0	salad_12s.jpg	0	0.0	0	253.100374881389	253.15035240215698	0.0499775207681523	68241
68.341	50	175	0	0	fire_pit	593	175	0	stimuli\fire_pit\fire_pit_08s.jpg	7	-1	0	0	fire_pit_08s.jpg	0	0.0	0	253.200371614341	253.250356693203	0.0499850788619369	68341
68.441	50	176	0	0	barbed_wire	71	176	0	stimuli\barbed_wire\barbed_wire_12s.jpg	11	-1	0	0	barbed_wire_12s.jpg	0	0.0	0	253.3003788311	253.35036147186798	0.0499826407685759	68441
68.541	50	177	0	0	jumpsuit	859	177	0	stimuli\jumpsuit\jumpsuit_07s.jpg	6	-1	0	0	jumpsuit_07s.jpg	0	0.0	0	253.400364348821	253.45036308101	0.049998732189124005	68541
68.641	50	178	0	0	doorknob	509	178	0	stimuli\doorknob\doorknob_02s.jpg	1	-1	0	0	doorknob_02s.jpg	0	0.0	0	253.500367908437	253.550361520629	0.0499936121923383	68641
68.741	50	179	0	0	clam	349	179	0	stimuli\clam\clam_03s.jpg	2	-1	0	0	clam_03s.jpg	0	0.0	0	253.600383902336	253.650367762151	0.0499838598152564	68741
68.841	50	180	0	0	hourglass	807	180	0	stimuli\hourglass\hourglass_11s.jpg	10	-1	0	0	hourglass_11s.jpg	0	0.0	0	253.70038697433498	253.750353279873	0.0499663055379642	68841
68.941	50	181	0	0	blindfold	142	181	0	stimuli\blindfold\blindfold_09s.jpg	8	-1	0	0	blindfold_09s.jpg	0	0.0	0	253.800360545392	253.850345380448	0.0499848350555112	68941
69.041	50	182	0	0	gong	692	182	0	stimuli\gong\gong_12s.jpg	11	-1	0	0	gong_12s.jpg	0	0.0	0	253.90039555642898	253.950356010537	0.0499604541073495	69041
69.141	50	183	0	0	rocking_chair	1321	183	0	stimuli\rocking_chair\rocking_chair_05s.jpg	4	-1	0	0	rocking_chair_05s.jpg	0	0.0	0	254.000395946521	254.050355913012	0.0499599664908601	69141
69.241	50	184	0	0	violin	1764	184	0	stimuli\violin\violin_10n.jpg	9	-1	0	0	violin_10n.jpg	0	0.0	0	254.100400481377	254.15038141548197	0.049980934105405994	69241
69.341	50	185	0	0	windowsill	1819	185	0	stimuli\windowsill\windowsill_12s.jpg	11	-1	0	0	windowsill_12s.jpg	0	0.0	0	254.200399896235	254.250381561767	0.0499816655319592	69341
69.441	50	186	0	0	squeegee	1527	186	0	stimuli\squeegee\squeegee_06s.jpg	5	-1	0	0	squeegee_06s.jpg	0	0.0	0	254.300361764439	254.35038682805	0.0500250636105193	69441
69.541	50	187	0	0	wax_paper	1796	187	0	stimuli\wax_paper\wax_paper_09s.jpg	8	-1	0	0	wax_paper_09s.jpg	0	0.0	0	254.400405796423	254.450376246721	0.0499704502981331	69541
69.641	50	188	0	0	mask	980	188	0	stimuli\mask\mask_10s.jpg	9	-1	0	0	mask_10s.jpg	0	0.0	0	254.50039228938098	254.550345916829	0.049953627447394004	69641
69.741	50	189	0	0	beaker	101	189	0	stimuli\beaker\beaker_06s.jpg	5	-1	0	0	beaker_06s.jpg	0	0.0	0	254.60041267185102	254.65039531261903	0.0499826407685759	69741
69.841	50	190	0	0	drawer	516	190	0	stimuli\drawer\drawer_07s.jpg	6	-1	0	0	drawer_07s.jpg	0	0.0	0	254.700413305756	254.750392777001	0.0499794712450239	69841
69.941	50	191	0	0	catapult	285	191	0	stimuli\catapult\catapult_04s.jpg	3	-1	0	0	catapult_04s.jpg	0	0.0	0	254.800413452042	254.85037975757598	0.0499663055343262	69941
70.041	50	192	0	0	root	1331	192	0	stimuli\root\root_04s.jpg	3	-1	0	0	root_04s.jpg	0	0.0	0	254.900418474514	254.950402090519	0.0499836160051927	70041
70.141	50	193	0	0	omelet	1076	193	0	stimuli\omelet\omelet_01b.jpg	0	-1	0	0	omelet_01b.jpg	0	0.0	0	255.000419839846	255.050401261567	0.0499814217218955	70141
70.241	50	194	0	0	sofa_bed	1492	194	0	stimuli\sofa_bed\sofa_bed_03s.jpg	2	-1	0	0	sofa_bed_03s.jpg	0	0.0	0	255.100397799473	255.150374832625	0.0499770331516629	70241
70.341	50	195	0	0	yo-yo	1847	195	0	stimuli\yo-yo\yo-yo_05s.jpg	4	-1	0	0	yo-yo_05s.jpg	0	0.0	0	255.20041257432598	255.25039155795503	0.0499789836285345	70341
70.441	50	196	0	0	baklava	57	196	0	stimuli\baklava\baklava_06s.jpg	5	-1	0	0	baklava_06s.jpg	0	0.0	0	255.300412964421	255.35039146043	0.0499784960084071	70441
70.541	50	197	0	0	crayfish	434	197	0	stimuli\crayfish\crayfish_12s.jpg	11	-1	0	0	crayfish_12s.jpg	0	0.0	0	255.40043432212798	255.450417694323	0.049983372195129	70541
70.641	50	198	0	0	handlebar	749	198	0	stimuli\handlebar\handlebar_03s.jpg	2	-1	0	0	handlebar_03s.jpg	0	0.0	0	255.500424472226	255.550419547275	0.0499950750490825	70641
70.741	50	199	0	0	tarp	1628	199	0	stimuli\tarp\tarp_02s.jpg	1	-1	0	0	tarp_02s.jpg	0	0.0	0	255.600426568988	255.65042408212997	0.0499975131424435	70741
70.841	50	200	0	0	cheetah	315	200	0	stimuli\cheetah\cheetah_06s.jpg	5	-1	0	0	cheetah_06s.jpg	0	0.0	0	255.70044207526698	255.750410087468	0.0499680122011341	70841
70.941	50	201	0	0	harp	755	201	0	stimuli\harp\harp_05s.jpg	4	-1	0	0	harp_05s.jpg	0	0.0	0	255.800426617749	255.850457776596	0.0500311588475597	70941
71.041	50	202	0	0	potato	1231	202	0	stimuli\potato\potato_12s.jpg	11	-1	0	0	potato_12s.jpg	0	0.0	0	255.90043627260502	255.95041525622898	0.0499789836248965	71041
71.141	50	203	0	0	sundae	1582	203	0	stimuli\sundae\sundae_04s.jpg	3	-1	0	0	sundae_04s.jpg	0	0.0	0	256.000451047454	256.050439539649	0.0499884921955527	71141
71.241	50	204	0	0	kilt	872	204	0	stimuli\kilt\kilt_05s.jpg	4	-1	0	0	kilt_05s.jpg	0	0.0	0	256.100454607073	256.15042213165697	0.0499675245846447	71241
71.341	50	205	0	0	veil	1755	205	0	stimuli\veil\veil_08s.jpg	7	-1	0	0	veil_08s.jpg	0	0.0	0	256.200442562887	256.250425935083	0.049983372195129	71341
71.441	50	206	0	0	pitcher	1190	206	0	stimuli\pitcher\pitcher_10s.jpg	9	-1	0	0	pitcher_10s.jpg	0	0.0	0	256.30044027107897	256.35043729660197	0.0499970255223161	71441
71.541	50	207	0	0	marmalade	976	207	0	stimuli\marmalade\marmalade_02s.jpg	1	-1	0	0	marmalade_02s.jpg	0	0.0	0	256.400460165929	256.450425983847	0.0499658179178368	71541
71.641	50	208	0	0	football_helmet	630	208	0	stimuli\football_helmet\football_helmet_05s.jpg	4	-1	0	0	football_helmet_05s.jpg	0	0.0	0	256.500462994118	256.55044758536	0.0499845912418095	71641
71.741	50	209	0	0	cat	284	209	0	stimuli\cat\cat_12s.jpg	11	-1	0	0	cat_12s.jpg	0	0.0	0	256.600469479446	256.650433103081	0.0499636236345395	71741
71.841	50	210	0	0	paddle	1094	210	0	stimuli\paddle\paddle_08s.jpg	7	-1	0	0	paddle_08s.jpg	0	0.0	0	256.700454021931	256.750450559837	0.0499965379058267	71841
71.941	50	211	0	0	pocket	1205	211	0	stimuli\pocket\pocket_04s.jpg	3	-1	0	0	pocket_04s.jpg	0	0.0	0	256.800467090117	256.850448024219	0.0499809341017681	71941
72.041	50	212	0	0	eye_patch	565	212	0	stimuli\eye_patch\eye_patch_04s.jpg	3	-1	0	0	eye_patch_04s.jpg	0	0.0	0	256.900466748782	256.950448414314	0.0499816655319592	72041
72.141	50	213	0	0	tinsel	1662	213	0	stimuli\tinsel\tinsel_12s.jpg	11	-1	0	0	tinsel_12s.jpg	0	0.0	0	257.000469089355	257.050449535836	0.0499804464816407	72141
72.241	50	214	0	0	string_cheese	1573	214	0	stimuli\string_cheese\string_cheese_04s.jpg	3	-1	0	0	string_cheese_04s.jpg	0	0.0	0	257.100476062304	257.150454070692	0.0499780083882797	72241
72.341	50	215	0	0	snail	1476	215	0	stimuli\snail\snail_04s.jpg	3	-1	0	0	snail_04s.jpg	0	0.0	0	257.200475233352	257.250454216977	0.0499789836248965	72341
72.441	50	216	0	0	amplifier	20	216	0	stimuli\amplifier\amplifier_06s.jpg	5	-1	0	0	amplifier_06s.jpg	0	0.0	0	257.300481962491	257.350457532786	0.0499755702949187	72441
72.541	50	217	0	0	hockey_stick	783	217	0	stimuli\hockey_stick\hockey_stick_09s.jpg	8	-1	0	0	hockey_stick_09s.jpg	0	0.0	0	257.40047698878	257.450462067642	0.0499850788619369	72541
72.641	50	218	0	0	seismograph	1403	218	0	stimuli\seismograph\seismograph_01b.jpg	0	-1	0	0	seismograph_01b.jpg	0	0.0	0	257.500482742682	257.550463920594	0.0499811779118318	72641
72.741	50	219	0	0	candy_cane	257	219	0	stimuli\candy_cane\candy_cane_04s.jpg	3	-1	0	0	candy_cane_04s.jpg	0	0.0	0	257.600487765158	257.650464066879	0.0499763017214718	72741
72.841	50	220	0	0	slime	1465	220	0	stimuli\slime\slime_08s.jpg	7	-1	0	0	slime_08s.jpg	0	0.0	0	257.70048498572896	257.750467382688	0.0499823969585123	72841
72.941	50	221	0	0	backgammon	48	221	0	stimuli\backgammon\backgammon_04s.jpg	3	-1	0	0	backgammon_04s.jpg	0	0.0	0	257.800490008201	257.85047264897	0.0499826407685759	72941
73.041	50	222	0	0	earwig	541	222	0	stimuli\earwig\earwig_11s.jpg	10	-1	0	0	earwig_11s.jpg	0	0.0	0	257.900494055441	257.95047401430196	0.0499799588615133	73041
73.141	50	223	0	0	polisher	1215	223	0	stimuli\polisher\polisher_09s.jpg	8	-1	0	0	polisher_09s.jpg	0	0.0	0	258.000500053153	258.050479036778	0.0499789836248965	73141
73.241	50	224	0	0	gear	667	224	0	stimuli\gear\gear_02s.jpg	1	-1	0	0	gear_02s.jpg	0	0.0	0	258.100500930865	258.150477964016	0.0499770331516629	73241
73.341	50	225	0	0	robot	1318	225	0	stimuli\robot\robot_02s.jpg	1	-1	0	0	robot_02s.jpg	0	0.0	0	258.200500101913	258.250481036015	0.0499809341017681	73341
73.441	50	226	0	0	doormat	511	226	0	stimuli\doormat\doormat_09s.jpg	8	-1	0	0	doormat_09s.jpg	0	0.0	0	258.300510975812	258.350489959441	0.0499789836285345	73441
73.541	50	227	0	0	plastic_film	1196	227	0	stimuli\plastic_film\plastic_film_02s.jpg	1	-1	0	0	plastic_film_02s.jpg	0	0.0	0	258.400507221148	258.45048913049	0.0499819093420228	73541
73.641	50	228	0	0	kangaroo	862	228	0	stimuli\kangaroo\kangaroo_01b.jpg	0	-1	0	0	kangaroo_01b.jpg	0	0.0	0	258.500511024577	258.55048952058496	0.0499784960084071	73641
73.741	50	229	0	0	duckling	526	229	0	stimuli\duckling\duckling_12s.jpg	11	-1	0	0	duckling_12s.jpg	0	0.0	0	258.600512389909	258.65048893543997	0.0499765455315355	73741
73.841	50	230	0	0	triangle	1710	230	0	stimuli\triangle\triangle_05s.jpg	4	-1	0	0	triangle_05s.jpg	0	0.0	0	258.700513267624	258.750496883629	0.0499836160051927	73841
73.941	50	231	0	0	inkwell	830	231	0	stimuli\inkwell\inkwell_01b.jpg	0	-1	0	0	inkwell_01b.jpg	0	0.0	0	258.800515852003	258.85049776134105	0.0499819093383849	73941
74.041	50	232	0	0	stapler	1539	232	0	stimuli\stapler\stapler_03s.jpg	2	-1	0	0	stapler_03s.jpg	0	0.0	0	258.900522093525	258.950503027627	0.0499809341017681	74041
74.141	50	233	0	0	cassette	283	233	0	stimuli\cassette\cassette_08s.jpg	7	-1	0	0	cassette_08s.jpg	0	0.0	0	259.000522971237	259.050505855816	0.0499828845786396	74141
74.241	50	234	0	0	cardigan	273	234	0	stimuli\cardigan\cardigan_02s.jpg	1	-1	0	0	cardigan_02s.jpg	0	0.0	0	259.100522629906	259.150506245911	0.0499836160051927	74241
74.341	50	235	0	0	cd_player	290	235	0	stimuli\cd_player\cd_player_04s.jpg	3	-1	0	0	cd_player_04s.jpg	0	0.0	0	259.20052521428397	259.250505904576	0.0499806902917044	74341
74.441	50	236	0	0	bread	194	236	0	stimuli\bread\bread_10s.jpg	9	-1	0	0	bread_10s.jpg	0	0.0	0	259.30054120818403	259.350517509905	0.0499763017214718	74441
74.541	50	237	0	0	hummus	812	237	0	stimuli\hummus\hummus_01b.jpg	0	-1	0	0	hummus_01b.jpg	0	0.0	0	259.400525263049	259.450519850478	0.0499945874289551	74541
74.641	50	238	0	0	branch	192	238	0	stimuli\branch\branch_07s.jpg	6	-1	0	0	branch_07s.jpg	0	0.0	0	259.50052565314	259.55054754723096	0.0500218940906052	74641
74.741	50	239	0	0	water_heater	1791	239	0	stimuli\water_heater\water_heater_10s.jpg	9	-1	0	0	water_heater_10s.jpg	0	0.0	0	259.600544816563	259.650527701142	0.0499828845786396	74741
74.841	50	240	0	0	bacon	51	240	0	stimuli\bacon\bacon_02s.jpg	1	-1	0	0	bacon_02s.jpg	0	0.0	0	259.700531553332	259.750517119814	0.0499855664820643	74841
74.941	50	241	0	0	riser	1314	241	0	stimuli\riser\riser_02s.jpg	1	-1	0	0	riser_02s.jpg	0	0.0	0	259.800556811988	259.850517753715	0.0499609417274769	74941
75.041	50	242	0	0	lemonade	915	242	0	stimuli\lemonade\lemonade_11s.jpg	10	-1	0	0	lemonade_11s.jpg	0	0.0	0	259.900537697329	259.950533747615	0.0499960502856993	75041
75.141	50	243	0	0	tablet	1610	243	0	stimuli\tablet\tablet_10s.jpg	9	-1	0	0	tablet_10s.jpg	0	0.0	0	260.000538818851	260.050535844377	0.0499970255259541	75141
75.241	50	244	0	0	cauliflower	288	244	0	stimuli\cauliflower\cauliflower_04s.jpg	3	-1	0	0	cauliflower_04s.jpg	0	0.0	0	260.100562614651	260.150521849715	0.049959235064306995	75241
75.341	50	245	0	0	blowgun	147	245	0	stimuli\blowgun\blowgun_04s.jpg	3	-1	0	0	blowgun_04s.jpg	0	0.0	0	260.200558372369	260.250530041711	0.0499716693411756	75341
75.441	50	246	0	0	calzone	243	246	0	stimuli\calzone\calzone_02s.jpg	1	-1	0	0	calzone_02s.jpg	0	0.0	0	260.300567051985	260.35053408895	0.0499670369645173	75441
75.541	50	247	0	0	rust	1342	247	0	stimuli\rust\rust_06s.jpg	5	-1	0	0	rust_06s.jpg	0	0.0	0	260.400569880174	260.450529846665	0.0499599664908601	75541
75.641	50	248	0	0	yogurt	1848	248	0	stimuli\yogurt\yogurt_02s.jpg	1	-1	0	0	yogurt_02s.jpg	0	0.0	0	260.500571001696	260.550548522468	0.0499775207717903	75641
75.741	50	249	0	0	canister	259	249	0	stimuli\canister\canister_05s.jpg	4	-1	0	0	canister_05s.jpg	0	0.0	0	260.600573342268	260.650550863036	0.0499775207681523	75741
75.841	50	250	0	0	flypaper	622	250	0	stimuli\flypaper\flypaper_01b.jpg	0	-1	0	0	flypaper_01b.jpg	0	0.0	0	260.700572757123	260.75053638075804	0.0499636236345395	75841
75.941	50	251	0	0	pan	1103	251	0	stimuli\pan\pan_05s.jpg	4	-1	0	0	pan_05s.jpg	0	0.0	0	260.800576560552	260.85055798227404	0.0499814217218955	75941
76.041	50	252	0	0	gauze	664	252	0	stimuli\gauze\gauze_07s.jpg	6	-1	0	0	gauze_07s.jpg	0	0.0	0	260.900565003984	260.950547888562	0.0499828845786396	76041
76.141	50	253	0	0	hummingbird	811	253	0	stimuli\hummingbird\hummingbird_02s.jpg	1	-1	0	0	hummingbird_02s.jpg	0	0.0	0	261.00056515026904	261.050562175795	0.0499970255259541	76141
76.241	50	254	0	0	modem	1011	254	0	stimuli\modem\modem_04s.jpg	3	-1	0	0	modem_04s.jpg	0	0.0	0	261.100583338455	261.15054696208597	0.0499636236309016	76241
76.341	50	255	0	0	crucifix	449	255	0	stimuli\crucifix\crucifix_08s.jpg	7	-1	0	0	crucifix_08s.jpg	0	0.0	0	261.20056251713	261.250543451231	0.0499809341017681	76341
76.441	50	256	0	0	radiator	1272	256	0	stimuli\radiator\radiator_08n.jpg	7	-1	0	0	radiator_08n.jpg	0	0.0	0	261.300591920546	261.350572123221	0.049980202675214996	76441
76.541	50	257	0	0	christmas_card	340	257	0	stimuli\christmas_card\christmas_card_09s.jpg	8	-1	0	0	christmas_card_09s.jpg	0	0.0	0	261.400593285878	261.45057105046004	0.04997776458185401	76541
76.641	50	258	0	0	cobra	371	258	0	stimuli\cobra\cobra_01b.jpg	0	-1	0	0	cobra_01b.jpg	0	0.0	0	261.50059075026	261.550576560552	0.049985810292128	76641
76.741	50	259	0	0	cocoon	376	259	0	stimuli\cocoon\cocoon_01b.jpg	0	-1	0	0	cocoon_01b.jpg	0	0.0	0	261.600596747972	261.65056305351004	0.0499663055379642	76741
76.841	50	260	0	0	hedge	773	260	0	stimuli\hedge\hedge_08s.jpg	7	-1	0	0	hedge_08s.jpg	0	0.0	0	261.70057470759997	261.750561493129	0.0499867855287448	76841
76.941	50	261	0	0	corn	412	261	0	stimuli\corn\corn_05s.jpg	4	-1	0	0	corn_05s.jpg	0	0.0	0	261.800578998646	261.850591627976	0.0500126293300127	76941
77.041	50	262	0	0	ski_lift	1454	262	0	stimuli\ski_lift\ski_lift_02s.jpg	1	-1	0	0	ski_lift_02s.jpg	0	0.0	0	261.900602306829	261.95056812474604	0.0499658179178368	77041
77.141	50	263	0	0	sprouts	1524	263	0	stimuli\sprouts\sprouts_06s.jpg	5	-1	0	0	sprouts_06s.jpg	0	0.0	0	262.00060562263803	262.050589726263	0.0499841036253201	77141
77.241	50	264	0	0	patty	1126	264	0	stimuli\patty\patty_06s.jpg	5	-1	0	0	patty_06s.jpg	0	0.0	0	262.100612107966	262.150572805887	0.0499606979210512	77241
77.341	50	265	0	0	stethoscope	1550	265	0	stimuli\stethoscope\stethoscope_07s.jpg	6	-1	0	0	stethoscope_07s.jpg	0	0.0	0	262.200610791395	262.25059148169	0.0499806902953424	77341
77.441	50	266	0	0	baton3	94	266	0	stimuli\baton3\baton3_06s.jpg	5	-1	0	0	baton3_06s.jpg	0	0.0	0	262.30061532625	262.350596016546	0.0499806902953424	77441
77.541	50	267	0	0	powder	1236	267	0	stimuli\powder\powder_12s.jpg	11	-1	0	0	powder_12s.jpg	0	0.0	0	262.40060084397203	262.450589092357	0.04998824838548901	77541
77.641	50	268	0	0	ski_pole	1455	268	0	stimuli\ski_pole\ski_pole_11s.jpg	10	-1	0	0	ski_pole_11s.jpg	0	0.0	0	262.500610011208	262.550589970069	0.0499799588615133	77641
77.741	50	269	0	0	mud	1033	269	0	stimuli\mud\mud_01b.jpg	0	-1	0	0	mud_01b.jpg	0	0.0	0	262.60061162035	262.650599137305	0.0499875169552979	77741
77.841	50	270	0	0	squash	1526	270	0	stimuli\squash\squash_02s.jpg	1	-1	0	0	squash_02s.jpg	0	0.0	0	262.700617130442	262.75059806454396	0.0499809341017681	77841
77.941	50	271	0	0	bell	116	271	0	stimuli\bell\bell_03s.jpg	2	-1	0	0	bell_03s.jpg	0	0.0	0	262.800620446251	262.850597967019	0.0499775207681523	77941
78.041	50	272	0	0	altar	16	272	0	stimuli\altar\altar_10s.jpg	9	-1	0	0	altar_10s.jpg	0	0.0	0	262.900620348726	262.950602014258	0.0499816655319592	78041
78.141	50	273	0	0	hook1	793	273	0	stimuli\hook1\hook1_12s.jpg	11	-1	0	0	hook1_12s.jpg	0	0.0	0	263.00063390453204	263.050606792924	0.0499728883914941	78141
78.241	50	274	0	0	lunchbox	950	274	0	stimuli\lunchbox\lunchbox_07s.jpg	6	-1	0	0	lunchbox_07s.jpg	0	0.0	0	263.100628443201	263.150605963969	0.0499775207681523	78241
78.341	50	275	0	0	birdcage	130	275	0	stimuli\birdcage\birdcage_05s.jpg	4	-1	0	0	birdcage_05s.jpg	0	0.0	0	263.200620056155	263.250602940734	0.0499828845786396	78341
78.441	50	276	0	0	hydrant	814	276	0	stimuli\hydrant\hydrant_05s.jpg	4	-1	0	0	hydrant_05s.jpg	0	0.0	0	263.300625322438	263.35062429844	0.0499989760028257	78441
78.541	50	277	0	0	stove2	1564	277	0	stimuli\stove2\stove2_11s.jpg	10	-1	0	0	stove2_11s.jpg	0	0.0	0	263.40063985348	263.450623225679	0.049983372198767	78541
78.641	50	278	0	0	phone	1161	278	0	stimuli\phone\phone_08s.jpg	7	-1	0	0	phone_08s.jpg	0	0.0	0	263.500648533096	263.550624591011	0.0499760579150461	78641
78.741	50	279	0	0	clock	359	279	0	stimuli\clock\clock_11n.jpg	10	-1	0	0	clock_11n.jpg	0	0.0	0	263.600647704145	263.650614009683	0.0499663055379642	78741
78.841	50	280	0	0	skirt	1457	280	0	stimuli\skirt\skirt_11s.jpg	10	-1	0	0	skirt_11s.jpg	0	0.0	0	263.700650776143	263.750628784532	0.0499780083882797	78841
78.941	50	281	0	0	defibrillator	477	281	0	stimuli\defibrillator\defibrillator_04s.jpg	3	-1	0	0	defibrillator_04s.jpg	0	0.0	0	263.800650434812	263.850637951768	0.0499875169552979	78941
79.041	50	282	0	0	dreidel	517	282	0	stimuli\dreidel\dreidel_12s.jpg	11	-1	0	0	dreidel_12s.jpg	0	0.0	0	263.900641072527	263.950634440913	0.0499933683859126	79041
79.141	50	283	0	0	shoelace	1426	283	0	stimuli\shoelace\shoelace_07s.jpg	6	-1	0	0	shoelace_07s.jpg	0	0.0	0	264.000657554046	264.050626785294	0.0499692312478146	79141
79.241	50	284	0	0	pretzel	1239	284	0	stimuli\pretzel\pretzel_08s.jpg	7	-1	0	0	pretzel_08s.jpg	0	0.0	0	264.100642827958	264.150622543013	0.0499797150550876	79241
79.341	50	285	0	0	french_horn	642	285	0	stimuli\french_horn\french_horn_04s.jpg	3	-1	0	0	french_horn_04s.jpg	0	0.0	0	264.200641755197	264.25063658643603	0.0499948312390188	79341
79.441	50	286	0	0	toaster_oven	1667	286	0	stimuli\toaster_oven\toaster_oven_10s.jpg	9	-1	0	0	toaster_oven_10s.jpg	0	0.0	0	264.300670183376	264.350646485098	0.0499763017214718	79441
79.541	50	287	0	0	bassinet	85	287	0	stimuli\bassinet\bassinet_01b.jpg	0	-1	0	0	bassinet_01b.jpg	0	0.0	0	264.400670085852	264.450650532333	0.0499804464816407	79541
79.641	50	288	0	0	dolly	501	288	0	stimuli\dolly\dolly_01s.jpg	0	-1	0	0	dolly_01s.jpg	0	0.0	0	264.500656335	264.550651653859	0.0499953188591462	79641
79.741	50	289	0	0	hopscotch	796	289	0	stimuli\hopscotch\hopscotch_12s.jpg	11	-1	0	0	hopscotch_12s.jpg	0	0.0	0	264.60067427937196	264.65064399823996	0.049969718867942	79741
79.841	50	290	0	0	chest1	319	290	0	stimuli\chest1\chest1_01b.jpg	0	-1	0	0	chest1_01b.jpg	0	0.0	0	264.700676863755	264.750657554046	0.0499806902917044	79841
79.941	50	291	0	0	footrest	633	291	0	stimuli\footrest\footrest_07s.jpg	6	-1	0	0	footrest_07s.jpg	0	0.0	0	264.800679448133	264.850636488911	0.0499570407773717	79941
80.041	50	292	0	0	soap	1487	292	0	stimuli\soap\soap_10s.jpg	9	-1	0	0	soap_10s.jpg	0	0.0	0	264.900659845855	264.95063956091	0.0499797150550876	80041
80.141	50	293	0	0	fishnet_stockings	604	293	0	stimuli\fishnet_stockings\fishnet_stockings_07s.jpg	6	-1	0	0	fishnet_stockings_07s.jpg	0	0.0	0	265.000658529283	265.05066945194596	0.0500109226632048	80141
80.241	50	294	0	0	mousse	1030	294	0	stimuli\mousse\mousse_12s.jpg	11	-1	0	0	mousse_12s.jpg	0	0.0	0	265.100686713653	265.150661308711	0.0499745950583019	80241
80.341	50	295	0	0	patch	1125	295	0	stimuli\patch\patch_09s.jpg	8	-1	0	0	patch_09s.jpg	0	0.0	0	265.20067905803796	265.250662430233	0.049983372195129	80341
80.441	50	296	0	0	minivan	1003	296	0	stimuli\minivan\minivan_12s.jpg	11	-1	0	0	minivan_12s.jpg	0	0.0	0	265.300686762417	265.350665746042	0.0499789836248965	80441
80.541	50	297	0	0	piglet	1173	297	0	stimuli\piglet\piglet_04s.jpg	3	-1	0	0	piglet_04s.jpg	0	0.0	0	265.400683007752	265.450664917091	0.0499819093383849	80541
80.641	50	298	0	0	broccoli	201	298	0	stimuli\broccoli\broccoli_08s.jpg	7	-1	0	0	broccoli_08s.jpg	0	0.0	0	265.500688517845	265.55066116242597	0.0499726445814304	80641
80.741	50	299	0	0	paperweight	1117	299	0	stimuli\paperweight\paperweight_03s.jpg	2	-1	0	0	paperweight_03s.jpg	0	0.0	0	265.60068427556	265.650652287761	0.0499680122011341	80741
80.841	50	300	0	0	thread	1651	300	0	stimuli\thread\thread_08s.jpg	7	-1	0	0	thread_08s.jpg	0	0.0	0	265.700676376135	265.75068729879797	0.0500109226632048	80841
80.941	50	301	0	0	bib	122	301	0	stimuli\bib\bib_01n.jpg	0	-1	0	0	bib_01n.jpg	0	0.0	0	265.800704560505	265.850685494606	0.0499809341017681	80941
81.041	50	302	0	0	mushroom	1040	302	0	stimuli\mushroom\mushroom_08n.jpg	7	-1	0	0	mushroom_08n.jpg	0	0.0	0	265.90069007822603	265.950688566605	0.0499984883790603	81041
81.141	50	303	0	0	pom-pom	1218	303	0	stimuli\pom-pom\pom-pom_11s.jpg	10	-1	0	0	pom-pom_11s.jpg	0	0.0	0	266.00071143593203	266.050689688131	0.0499782521983434	81141
81.241	50	304	0	0	spam	1504	304	0	stimuli\spam\spam_07s.jpg	6	-1	0	0	spam_07s.jpg	0	0.0	0	266.100712313644	266.15067910679903	0.0499667931544536	81241
81.341	50	305	0	0	gauge	663	305	0	stimuli\gauge\gauge_08s.jpg	7	-1	0	0	gauge_08s.jpg	0	0.0	0	266.200713922786	266.250699001652	0.0499850788655749	81341
81.441	50	306	0	0	nightshirt	1058	306	0	stimuli\nightshirt\nightshirt_12s.jpg	11	-1	0	0	nightshirt_12s.jpg	0	0.0	0	266.300725771925	266.350686713653	0.0499609417274769	81441
81.541	50	307	0	0	forklift	635	307	0	stimuli\forklift\forklift_01b.jpg	0	-1	0	0	forklift_01b.jpg	0	0.0	0	266.400720310594	266.450683934228	0.0499636236345395	81541
81.641	50	308	0	0	videocassette	1761	308	0	stimuli\videocassette\videocassette_10n.jpg	9	-1	0	0	videocassette_10n.jpg	0	0.0	0	266.500723626403	266.550706510981	0.0499828845786396	81641
94.825	50	309	0	0	shovel	1432	0	1	stimuli\shovel\shovel_09s.jpg	8	-1	1	0	shovel_09s.jpg	0	0.0	0	279.684400145896	279.734374984764	0.0499748388683656	94825
94.925	50	310	0	0	raincoat	1279	1	1	stimuli\raincoat\raincoat_11s.jpg	10	-1	1	0	raincoat_11s.jpg	0	0.0	0	279.784404680751	279.834378788189	0.0499741074381745	94925
95.025	50	311	0	0	tile	1660	2	1	stimuli\tile\tile_06s.jpg	5	-1	1	0	tile_06s.jpg	0	0.0	0	279.884401413707	279.934390393519	0.0499889798120421	95025
95.125	50	312	0	0	pennant	1148	3	1	stimuli\pennant\pennant_03s.jpg	2	-1	1	0	pennant_03s.jpg	0	0.0	0	279.984389613328	280.034387614091	0.0499980007625709	95125
95.225	50	313	0	0	column	388	4	1	stimuli\column\column_06s.jpg	5	-1	1	0	column_06s.jpg	0	0.0	0	280.084410727224	280.13438215275903	0.0499714255347499	95225
95.325	50	314	0	0	windshield	1820	5	1	stimuli\windshield\windshield_08s.jpg	7	-1	1	0	windshield_08s.jpg	0	0.0	0	280.184391124949	280.234366695244	0.0499755702949187	95325
95.425	50	315	0	0	quiche	1262	6	1	stimuli\quiche\quiche_03s.jpg	2	-1	1	0	quiche_03s.jpg	0	0.0	0	280.284418334079	280.334380007236	0.049961673157668	95425
95.525	50	316	0	0	tattoo	1629	7	1	stimuli\tattoo\tattoo_05s.jpg	4	-1	1	0	tattoo_05s.jpg	0	0.0	0	280.384414579414	280.434369669718	0.0499550903041381	95525
95.625	50	317	0	0	sweater	1592	8	1	stimuli\sweater\sweater_12s.jpg	11	-1	1	0	sweater_12s.jpg	0	0.0	0	280.48442008951	280.534386638854	0.0499665493443899	95625
95.725	50	318	0	0	gun	727	9	1	stimuli\gun\gun_06s.jpg	5	-1	1	0	gun_06s.jpg	0	0.0	0	280.584420235795	280.634406289893	0.0499860540985537	95725
95.825	50	319	0	0	biscuit	133	10	1	stimuli\biscuit\biscuit_04s.jpg	3	-1	1	0	biscuit_04s.jpg	0	0.0	0	280.684433060171	280.734385956188	0.0499528960172029	95825
95.925	50	320	0	0	velcro	1756	11	1	stimuli\velcro\velcro_01b.jpg	0	-1	1	0	velcro_01b.jpg	0	0.0	0	280.784429793122	280.83440853294104	0.0499787398184708	95925
96.025	50	321	0	0	treadmill	1706	12	1	stimuli\treadmill\treadmill_12n.jpg	11	-1	1	0	treadmill_12n.jpg	0	0.0	0	280.884426769888	280.93440770398996	0.0499809341017681	96025
96.125	50	322	0	0	kale	860	13	1	stimuli\kale\kale_05s.jpg	4	-1	1	0	kale_05s.jpg	0	0.0	0	280.98441496950903	281.034398829324	0.0499838598152564	96125
96.225	50	323	0	0	bun	220	14	1	stimuli\bun\bun_07s.jpg	6	-1	1	0	bun_07s.jpg	0	0.0	0	281.084417310081	281.13442262512797	0.0500053150462918	96225
96.325	50	324	0	0	bobsled	155	15	1	stimuli\bobsled\bobsled_04s.jpg	3	-1	1	0	bobsled_04s.jpg	0	0.0	0	281.18442769636397	281.234413994272	0.0499862979086174	96325
96.425	50	325	0	0	rose	1334	16	1	stimuli\rose\rose_03s.jpg	2	-1	1	0	rose_03s.jpg	0	0.0	0	281.284430280743	281.334409995798	0.0499797150550876	96425
96.525	50	326	0	0	boa	150	17	1	stimuli\boa\boa_08s.jpg	7	-1	1	0	boa_08s.jpg	0	0.0	0	281.384429939408	281.43441233637003	0.0499823969621502	96525
96.625	50	327	0	0	tuning_fork	1728	18	1	stimuli\tuning_fork\tuning_fork_11s.jpg	10	-1	1	0	tuning_fork_11s.jpg	0	0.0	0	281.484435449504	281.534416871225	0.0499814217218955	96625
96.725	50	328	0	0	leopard	917	19	1	stimuli\leopard\leopard_05s.jpg	4	-1	1	0	leopard_05s.jpg	0	0.0	0	281.584439009119	281.634418236557	0.0499792274385982	96725
96.825	50	329	0	0	wreath	1839	20	1	stimuli\wreath\wreath_04s.jpg	3	-1	1	0	wreath_04s.jpg	0	0.0	0	281.68443818016704	281.734421064746	0.0499828845786396	96825
96.925	50	330	0	0	washcloth	1783	21	1	stimuli\washcloth\washcloth_11s.jpg	10	-1	1	0	washcloth_11s.jpg	0	0.0	0	281.784445396926	281.834424136745	0.0499787398184708	96925
97.025	50	331	0	0	wedding_cake	1800	22	1	stimuli\wedding_cake\wedding_cake_02s.jpg	1	-1	1	0	wedding_cake_02s.jpg	0	0.0	0	281.8844684613	281.934425989697	0.0499575283974991	97025
97.125	50	332	0	0	scuba	1392	23	1	stimuli\scuba\scuba_06s.jpg	5	-1	1	0	scuba_06s.jpg	0	0.0	0	281.984450078067	282.034430524553	0.0499804464852787	97125
97.225	50	333	0	0	rocket	1320	24	1	stimuli\rocket\rocket_05s.jpg	4	-1	1	0	rocket_05s.jpg	0	0.0	0	282.08445241864	282.134430914648	0.0499784960084071	97225
97.325	50	334	0	0	silverware	1445	25	1	stimuli\silverware\silverware_12s.jpg	11	-1	1	0	silverware_12s.jpg	0	0.0	0	282.184457928732	282.234439106644	0.0499811779118318	97325
97.425	50	335	0	0	leaf	906	26	1	stimuli\leaf\leaf_01b.jpg	0	-1	1	0	leaf_01b.jpg	0	0.0	0	282.28445685597	282.334434864359	0.0499780083882797	97425
97.525	50	336	0	0	manatee	964	27	1	stimuli\manatee\manatee_01b.jpg	0	-1	1	0	manatee_01b.jpg	0	0.0	0	282.384457246066	282.434439155408	0.0499819093420228	97525
97.625	50	337	0	0	nightstand	1059	28	1	stimuli\nightstand\nightstand_05s.jpg	4	-1	1	0	nightstand_05s.jpg	0	0.0	0	282.48446397520803	282.534442715023	0.0499787398148328	97625
97.725	50	338	0	0	napkin	1050	29	1	stimuli\napkin\napkin_08s.jpg	7	-1	1	0	napkin_08s.jpg	0	0.0	0	282.58446631577704	282.634441886072	0.0499755702949187	97725
97.825	50	339	0	0	horn	797	30	1	stimuli\horn\horn_09s.jpg	8	-1	1	0	horn_09s.jpg	0	0.0	0	282.68446329253896	282.734445689497	0.0499823969585123	97825
97.925	50	340	0	0	icepick	822	31	1	stimuli\icepick\icepick_01b.jpg	0	-1	1	0	icepick_01b.jpg	0	0.0	0	282.784470265491	282.834449980546	0.0499797150550876	97925
98.025	50	341	0	0	blouse	144	32	1	stimuli\blouse\blouse_04s.jpg	3	-1	1	0	blouse_04s.jpg	0	0.0	0	282.884467973679	282.93445207730497	0.0499841036253201	98025
98.125	50	342	0	0	cupcake	461	33	1	stimuli\cupcake\cupcake_10s.jpg	9	-1	1	0	cupcake_10s.jpg	0	0.0	0	282.984473239965	283.034459050257	0.049985810292128	98125
98.225	50	343	0	0	taco	1613	34	1	stimuli\taco\taco_07s.jpg	6	-1	1	0	taco_07s.jpg	0	0.0	0	283.084479969104	283.13445553939897	0.0499755702949187	98225
98.325	50	344	0	0	beachball	99	35	1	stimuli\beachball\beachball_11s.jpg	10	-1	1	0	beachball_11s.jpg	0	0.0	0	283.184478896343	283.234449590451	0.0499706941081968	98325
98.425	50	345	0	0	sandbox	1354	36	1	stimuli\sandbox\sandbox_10s.jpg	9	-1	1	0	sandbox_10s.jpg	0	0.0	0	283.28449318357497	283.33446972910997	0.0499765455351735	98425
98.525	50	346	0	0	ladybug	888	37	1	stimuli\ladybug\ladybug_12s.jpg	11	-1	1	0	ladybug_12s.jpg	0	0.0	0	283.384490647957	283.434472313489	0.0499816655319592	98525
98.625	50	347	0	0	wine	1823	38	1	stimuli\wine\wine_10s.jpg	9	-1	1	0	wine_10s.jpg	0	0.0	0	283.484495914243	283.53447806739103	0.0499821531484486	98625
98.725	50	348	0	0	donut	505	39	1	stimuli\donut\donut_02s.jpg	1	-1	1	0	donut_02s.jpg	0	0.0	0	283.584502155765	283.634464072729	0.0499619169640937	98725
98.825	50	349	0	0	eye	564	40	1	stimuli\eye\eye_12s.jpg	11	-1	1	0	eye_12s.jpg	0	0.0	0	283.684504008717	283.73448226091597	0.0499782521983434	98825
98.925	50	350	0	0	sidecar	1442	41	1	stimuli\sidecar\sidecar_06s.jpg	5	-1	1	0	sidecar_06s.jpg	0	0.0	0	283.784504642619	283.834470948157	0.0499663055379642	98925
99.025	50	351	0	0	pocketknife	1207	42	1	stimuli\pocketknife\pocketknife_01b.jpg	0	-1	1	0	pocketknife_01b.jpg	0	0.0	0	283.884484552724	283.93446304873197	0.0499784960084071	99025
99.125	50	352	0	0	inhaler	828	43	1	stimuli\inhaler\inhaler_11s.jpg	10	-1	1	0	inhaler_11s.jpg	0	0.0	0	283.98451103042703	284.034487575958	0.0499765455315355	99125
99.225	50	353	0	0	snowman	1482	44	1	stimuli\snowman\snowman_12s.jpg	11	-1	1	0	snowman_12s.jpg	0	0.0	0	284.084493378625	284.134492842244	0.0499994636193151	99225
99.325	50	354	0	0	kite	874	45	1	stimuli\kite\kite_07s.jpg	6	-1	1	0	kite_07s.jpg	0	0.0	0	284.184511566807	284.234481773296	0.0499702064880694	99325
99.425	50	355	0	0	lion	933	46	1	stimuli\lion\lion_02s.jpg	1	-1	1	0	lion_02s.jpg	0	0.0	0	284.28451732071	284.334495085292	0.04997776458185401	99425
99.525	50	356	0	0	diamond	484	47	1	stimuli\diamond\diamond_02s.jpg	1	-1	1	0	diamond_02s.jpg	0	0.0	0	284.384503813668	284.434480603009	0.0499767893415992	99525
99.625	50	357	0	0	ice-cream_cone	817	48	1	stimuli\ice-cream_cone\ice-cream_cone_02s.jpg	1	-1	1	0	ice-cream_cone_02s.jpg	0	0.0	0	284.484531510421	284.534507812143	0.0499763017214718	99625
99.725	50	358	0	0	honeycomb	789	49	1	stimuli\honeycomb\honeycomb_07n.jpg	6	-1	1	0	honeycomb_07n.jpg	0	0.0	0	284.584530925276	284.634492110814	0.0499611855375406	99725
99.825	50	359	0	0	gem	670	50	1	stimuli\gem\gem_11s.jpg	10	-1	1	0	gem_11s.jpg	0	0.0	0	284.684527658232	284.73450932376	0.0499816655283212	99825
99.925	50	360	0	0	metal_detector	996	51	1	stimuli\metal_detector\metal_detector_05s.jpg	4	-1	1	0	metal_detector_05s.jpg	0	0.0	0	284.784532680704	284.834507763382	0.0499750826784293	99925
100.025	50	361	0	0	cushion	466	52	1	stimuli\cushion\cushion_02s.jpg	1	-1	1	0	cushion_02s.jpg	0	0.0	0	284.884531851752	284.93451449252103	0.0499826407685759	100025
100.125	50	362	0	0	rearview_mirror	1293	53	1	stimuli\rearview_mirror\rearview_mirror_01s.jpg	0	-1	1	0	rearview_mirror_01s.jpg	0	0.0	0	284.984534436135	285.03451756452006	0.0499831283850654	100125
100.225	50	363	0	0	rug	1340	54	1	stimuli\rug\rug_09s.jpg	8	-1	1	0	rug_09s.jpg	0	0.0	0	285.08453799575	285.134517466995	0.0499794712450239	100225
100.325	50	364	0	0	bow1	174	55	1	stimuli\bow1\bow1_12s.jpg	11	-1	1	0	bow1_12s.jpg	0	0.0	0	285.18453180299196	285.23452248947103	0.049990686478849994	100325
100.425	50	365	0	0	water_filter	1789	56	1	stimuli\water_filter\water_filter_08s.jpg	7	-1	1	0	water_filter_08s.jpg	0	0.0	0	285.284541701654	285.33452775575296	0.0499860540985537	100425
100.525	50	366	0	0	mat	982	57	1	stimuli\mat\mat_07s.jpg	6	-1	1	0	mat_07s.jpg	0	0.0	0	285.384527219372	285.43452595156504	0.049998732192762	100525
100.625	50	367	0	0	cleat	353	58	1	stimuli\cleat\cleat_11s.jpg	10	-1	1	0	cleat_11s.jpg	0	0.0	0	285.484548333272	285.53450976262	0.0499614293476043	100625
100.725	50	368	0	0	mistletoe	1007	59	1	stimuli\mistletoe\mistletoe_11s.jpg	10	-1	1	0	mistletoe_11s.jpg	0	0.0	0	285.584531900517	285.634528438422	0.0499965379058267	100725
100.825	50	369	0	0	headdress	763	60	1	stimuli\headdress\headdress_06s.jpg	5	-1	1	0	headdress_06s.jpg	0	0.0	0	285.684555208696	285.734535898991	0.0499806902953424	100825
100.925	50	370	0	0	slipper	1468	61	1	stimuli\slipper\slipper_08s.jpg	7	-1	1	0	slipper_08s.jpg	0	0.0	0	285.78455852450503	285.83452409861303	0.0499655741077731	100925
101.025	50	371	0	0	praying_mantis	1238	62	1	stimuli\praying_mantis\praying_mantis_10s.jpg	9	-1	1	0	praying_mantis_10s.jpg	0	0.0	0	285.884541116513	285.934521806805	0.0499806902917044	101025
101.125	50	372	0	0	yak	1845	63	1	stimuli\yak\yak_06s.jpg	5	-1	1	0	yak_06s.jpg	0	0.0	0	285.984562961836	286.034541214034	0.0499782521983434	101125
101.225	50	373	0	0	license_plate	921	64	1	stimuli\license_plate\license_plate_11s.jpg	10	-1	1	0	license_plate_11s.jpg	0	0.0	0	286.084562864315	286.13454184794	0.0499789836248965	101225
101.325	50	374	0	0	sundial	1583	65	1	stimuli\sundial\sundial_07s.jpg	6	-1	1	0	sundial_07s.jpg	0	0.0	0	286.184586416304	286.234547845652	0.0499614293476043	101325
101.425	50	375	0	0	record	1295	66	1	stimuli\record\record_02s.jpg	1	-1	1	0	record_02s.jpg	0	0.0	0	286.284567789262	286.334530925276	0.0499631360144122	101425
101.525	50	376	0	0	rack1	1268	67	1	stimuli\rack1\rack1_02s.jpg	1	-1	1	0	rack1_02s.jpg	0	0.0	0	286.384570861264	286.434534728705	0.0499638674409653	101525
101.625	50	377	0	0	saxophone	1368	68	1	stimuli\saxophone\saxophone_06s.jpg	5	-1	1	0	saxophone_06s.jpg	0	0.0	0	286.4845749085	286.53454292070097	0.0499680122011341	101625
101.725	50	378	0	0	printer	1240	69	1	stimuli\printer\printer_01s.jpg	0	-1	1	0	printer_01s.jpg	0	0.0	0	286.584575786212	286.63456062126704	0.0499848350555112	101725
101.825	50	379	0	0	shoulder	1431	70	1	stimuli\shoulder\shoulder_09s.jpg	8	-1	1	0	shoulder_09s.jpg	0	0.0	0	286.684578614404	286.734555403746	0.0499767893415992	101825
101.925	50	380	0	0	seaplane	1398	71	1	stimuli\seaplane\seaplane_06s.jpg	5	-1	1	0	seaplane_06s.jpg	0	0.0	0	286.784576810212	286.834539946227	0.0499631360144122	101925
102.025	50	381	0	0	dynamite	536	72	1	stimuli\dynamite\dynamite_09s.jpg	8	-1	1	0	dynamite_09s.jpg	0	0.0	0	286.884560133647	286.934559353456	0.0499992198092514	102025
102.125	50	382	0	0	dolphin	502	73	1	stimuli\dolphin\dolphin_10s.jpg	9	-1	1	0	dolphin_10s.jpg	0	0.0	0	286.98458149135297	287.034562669265	0.0499811779118318	102125
102.225	50	383	0	0	mattress	985	74	1	stimuli\mattress\mattress_09s.jpg	8	-1	1	0	mattress_09s.jpg	0	0.0	0	287.084587001445	287.134556964123	0.0499699626780057	102225
102.325	50	384	0	0	mosquito_net	1021	75	1	stimuli\mosquito_net\mosquito_net_06s.jpg	5	-1	1	0	mosquito_net_06s.jpg	0	0.0	0	287.184588366781	287.234566618979	0.0499782521983434	102325
102.425	50	385	0	0	vending_machine	1757	76	1	stimuli\vending_machine\vending_machine_09s.jpg	8	-1	1	0	vending_machine_09s.jpg	0	0.0	0	287.284613869248	287.334539702417	0.0499258331692545	102425
102.525	50	386	0	0	fondue	626	77	1	stimuli\fondue\fondue_11n.jpg	10	-1	1	0	fondue_11n.jpg	0	0.0	0	287.38456427840697	287.434547894412	0.0499836160051927	102525
102.625	50	387	0	0	puppy	1258	78	1	stimuli\puppy\puppy_12s.jpg	11	-1	1	0	puppy_12s.jpg	0	0.0	0	287.484567350406	287.534577785449	0.0500104350430775	102625
102.725	50	388	0	0	hobbyhorse	782	79	1	stimuli\hobbyhorse\hobbyhorse_11s.jpg	10	-1	1	0	hobbyhorse_11s.jpg	0	0.0	0	287.584593828113	287.63456037745703	0.0499665493443899	102725
102.825	50	389	0	0	oilcan	1073	80	1	stimuli\oilcan\oilcan_07s.jpg	6	-1	1	0	oilcan_07s.jpg	0	0.0	0	287.684600801062	287.73458368564	0.0499828845786396	102825
102.925	50	390	0	0	skin	1456	81	1	stimuli\skin\skin_09s.jpg	8	-1	1	0	skin_09s.jpg	0	0.0	0	287.784601434967	287.834584319542	0.0499828845750017	102925
103.025	50	391	0	0	almond	13	82	1	stimuli\almond\almond_07s.jpg	6	-1	1	0	almond_07s.jpg	0	0.0	0	287.884603531726	287.934585684878	0.0499821531520865	103025
103.125	50	392	0	0	chinaware	331	83	1	stimuli\chinaware\chinaware_02s.jpg	1	-1	1	0	chinaware_02s.jpg	0	0.0	0	287.984605140868	288.03459070735	0.0499855664820643	103125
103.225	50	393	0	0	freezer	640	84	1	stimuli\freezer\freezer_03s.jpg	2	-1	1	0	freezer_03s.jpg	0	0.0	0	288.084591146209	288.134573786974	0.049982640764938	103225
103.325	50	394	0	0	cornbread	413	85	1	stimuli\cornbread\cornbread_12s.jpg	11	-1	1	0	cornbread_12s.jpg	0	0.0	0	288.18461030962897	288.234573689453	0.0499633798244759	103325
103.425	50	395	0	0	fox	638	86	1	stimuli\fox\fox_12s.jpg	11	-1	1	0	fox_12s.jpg	0	0.0	0	288.28459704639704	288.334593828113	0.0499967817158904	103425
103.525	50	396	0	0	hot-air_balloon	801	87	1	stimuli\hot-air_balloon\hot-air_balloon_09s.jpg	8	-1	1	0	hot-air_balloon_09s.jpg	0	0.0	0	288.384617185056	288.434596656301	0.0499794712450239	103525
103.625	50	397	0	0	cereal	297	88	1	stimuli\cereal\cereal_03s.jpg	2	-1	1	0	cereal_03s.jpg	0	0.0	0	288.48462001324503	288.53460411687	0.0499841036253201	103625
103.725	50	398	0	0	bra	185	89	1	stimuli\bra\bra_06s.jpg	5	-1	1	0	bra_06s.jpg	0	0.0	0	288.58462186619704	288.63458719649503	0.0499653302977094	103725
103.825	50	399	0	0	pear	1133	90	1	stimuli\pear\pear_10s.jpg	9	-1	1	0	pear_10s.jpg	0	0.0	0	288.68462347533904	288.734606603724	0.0499831283850654	103825
103.925	50	400	0	0	stroller	1574	91	1	stimuli\stroller\stroller_04s.jpg	3	-1	1	0	stroller_04s.jpg	0	0.0	0	288.784629960668	288.83460675001	0.0499767893415992	103925
104.025	50	401	0	0	bongo	162	92	1	stimuli\bongo\bongo_03s.jpg	2	-1	1	0	bongo_03s.jpg	0	0.0	0	288.8846286441	288.934612503916	0.0499838598152564	104025
104.125	50	402	0	0	tweezers	1739	93	1	stimuli\tweezers\tweezers_03s.jpg	2	-1	1	0	tweezers_03s.jpg	0	0.0	0	288.984630497049	289.03461362543703	0.0499831283887033	104125
104.225	50	403	0	0	flower	619	94	1	stimuli\flower\flower_12s.jpg	11	-1	1	0	flower_12s.jpg	0	0.0	0	289.084617965247	289.13461523457994	0.0499972693323798	104225
104.325	50	404	0	0	rack2	1269	95	1	stimuli\rack2\rack2_02s.jpg	1	-1	1	0	rack2_02s.jpg	0	0.0	0	289.184651757234	289.234619769435	0.0499680122011341	104325
104.425	50	405	0	0	headscarf	768	96	1	stimuli\headscarf\headscarf_05s.jpg	4	-1	1	0	headscarf_05s.jpg	0	0.0	0	289.284640932095	289.33460699382005	0.0499660617242625	104425
104.525	50	406	0	0	loom	946	97	1	stimuli\loom\loom_04s.jpg	3	-1	1	0	loom_04s.jpg	0	0.0	0	289.384640834571	289.434624450576	0.0499836160051927	104525
104.625	50	407	0	0	bungee	221	98	1	stimuli\bungee\bungee_07s.jpg	6	-1	1	0	bungee_07s.jpg	0	0.0	0	289.48464853895	289.534625815908	0.0499772769580886	104625
104.725	50	408	0	0	swimming_pool	1596	99	1	stimuli\swimming_pool\swimming_pool_10s.jpg	9	-1	1	0	swimming_pool_10s.jpg	0	0.0	0	289.584631130954	289.63462961933703	0.0499984883826983	104725
104.825	50	409	0	0	sickle	1441	100	1	stimuli\sickle\sickle_01b.jpg	0	-1	1	0	sickle_01b.jpg	0	0.0	0	289.684650538187	289.734632691336	0.0499821531484486	104825
104.925	50	410	0	0	ladle	887	101	1	stimuli\ladle\ladle_02s.jpg	1	-1	1	0	ladle_02s.jpg	0	0.0	0	289.78465482923303	289.834637713811	0.0499828845786396	104925
105.025	50	411	0	0	cotton_candy	421	102	1	stimuli\cotton_candy\cotton_candy_10s.jpg	9	-1	1	0	cotton_candy_10s.jpg	0	0.0	0	289.884638884094	289.934636641046	0.0499977569525072	105025
105.125	50	412	0	0	screen2	1389	103	1	stimuli\screen2\screen2_04s.jpg	3	-1	1	0	screen2_04s.jpg	0	0.0	0	289.98465804751703	290.034638006382	0.0499799588651513	105125
105.225	50	413	0	0	goggles	686	104	1	stimuli\goggles\goggles_02s.jpg	1	-1	1	0	goggles_02s.jpg	0	0.0	0	290.08464405285497	290.134640834571	0.0499967817158904	105225
105.325	50	414	0	0	hay	761	105	1	stimuli\hay\hay_10s.jpg	9	-1	1	0	hay_10s.jpg	0	0.0	0	290.184638591523	290.234643662759	0.0500050712362281	105325
105.425	50	415	0	0	ring	1313	106	1	stimuli\ring\ring_07s.jpg	6	-1	1	0	ring_07s.jpg	0	0.0	0	290.284647027329	290.334646247138	0.0499992198092514	105425
105.525	50	416	0	0	pitchfork	1191	107	1	stimuli\pitchfork\pitchfork_06s.jpg	5	-1	1	0	pitchfork_06s.jpg	0	0.0	0	290.384666678372	290.434650538187	0.0499838598152564	105525
105.625	50	417	0	0	seagull	1395	108	1	stimuli\seagull\seagull_01b.jpg	0	-1	1	0	seagull_01b.jpg	0	0.0	0	290.484676577034	290.534636055905	0.0499594788707327	105625
105.725	50	418	0	0	coleslaw	386	109	1	stimuli\coleslaw\coleslaw_05s.jpg	4	-1	1	0	coleslaw_05s.jpg	0	0.0	0	290.58467209093897	290.634637665047	0.0499655741077731	105725
105.825	50	419	0	0	duster	534	110	1	stimuli\duster\duster_05s.jpg	4	-1	1	0	duster_05s.jpg	0	0.0	0	290.684674431512	290.734640493236	0.0499660617242625	105825
105.925	50	420	0	0	bookshelf	167	111	1	stimuli\bookshelf\bookshelf_05s.jpg	4	-1	1	0	bookshelf_05s.jpg	0	0.0	0	290.78466409399	290.83464380904496	0.0499797150550876	105925
106.025	50	421	0	0	balance_beam	58	112	1	stimuli\balance_beam\balance_beam_02s.jpg	1	-1	1	0	balance_beam_02s.jpg	0	0.0	0	290.884683501223	290.93466443532503	0.0499809341017681	106025
106.125	50	422	0	0	garter	659	113	1	stimuli\garter\garter_02s.jpg	1	-1	1	0	garter_02s.jpg	0	0.0	0	290.984686085601	291.034665556846	0.0499794712450239	106125
106.225	50	423	0	0	necklace	1054	114	1	stimuli\necklace\necklace_12s.jpg	11	-1	1	0	necklace_12s.jpg	0	0.0	0	291.08468866998	291.134667409799	0.0499787398184708	106225
106.325	50	424	0	0	drill	520	115	1	stimuli\drill\drill_04s.jpg	3	-1	1	0	drill_04s.jpg	0	0.0	0	291.184689547696	291.234672432274	0.0499828845786396	106325
106.425	50	425	0	0	cheesecake	314	116	1	stimuli\cheesecake\cheesecake_07s.jpg	6	-1	1	0	cheesecake_07s.jpg	0	0.0	0	291.284676040654	291.334656974755	0.0499809341017681	106425
106.525	50	426	0	0	showerhead	1436	117	1	stimuli\showerhead\showerhead_10s.jpg	9	-1	1	0	showerhead_10s.jpg	0	0.0	0	291.38469593550303	291.434678332462	0.0499823969585123	106525
106.625	50	427	0	0	mulch	1038	118	1	stimuli\mulch\mulch_02s.jpg	1	-1	1	0	mulch_02s.jpg	0	0.0	0	291.484705590356	291.53466092446604	0.0499553341105639	106625
106.725	50	428	0	0	cork	409	119	1	stimuli\cork\cork_06s.jpg	5	-1	1	0	cork_06s.jpg	0	0.0	0	291.584697690931	291.634664240275	0.0499665493443899	106725
106.825	50	429	0	0	dirt_bike	488	120	1	stimuli\dirt_bike\dirt_bike_03s.jpg	2	-1	1	0	dirt_bike_03s.jpg	0	0.0	0	291.684704420069	291.734682672268	0.0499782521983434	106825
106.925	50	430	0	0	poppy	1224	121	1	stimuli\poppy\poppy_06s.jpg	5	-1	1	0	poppy_06s.jpg	0	0.0	0	291.784709930165	291.83468501284	0.0499750826747913	106925
107.025	50	431	0	0	shark	1409	122	1	stimuli\shark\shark_07s.jpg	6	-1	1	0	shark_07s.jpg	0	0.0	0	291.884706906927	291.934689547696	0.0499826407685759	107025
107.125	50	432	0	0	eyepiece	568	123	1	stimuli\eyepiece\eyepiece_04s.jpg	3	-1	1	0	eyepiece_04s.jpg	0	0.0	0	291.984691937028	292.03467750351	0.0499855664820643	107125
107.225	50	433	0	0	helmet	776	124	1	stimuli\helmet\helmet_03s.jpg	2	-1	1	0	helmet_03s.jpg	0	0.0	0	292.084686231887	292.134677893606	0.0499916617191047	107225
107.325	50	434	0	0	chick	321	125	1	stimuli\chick\chick_09s.jpg	8	-1	1	0	chick_09s.jpg	0	0.0	0	292.18472294958696	292.234696569409	0.0499736198216851	107325
107.425	50	435	0	0	hot_tub	804	126	1	stimuli\hot_tub\hot_tub_03s.jpg	2	-1	1	0	hot_tub_03s.jpg	0	0.0	0	292.284716025399	292.334699153787	0.0499831283887033	107425
107.525	50	436	0	0	magnet	956	127	1	stimuli\magnet\magnet_08s.jpg	7	-1	1	0	magnet_08s.jpg	0	0.0	0	292.384703981214	292.434700519119	0.0499965379058267	107525
107.625	50	437	0	0	spider	1513	128	1	stimuli\spider\spider_01b.jpg	0	-1	1	0	spider_01b.jpg	0	0.0	0	292.484726314156	292.534701884451	0.0499755702949187	107625
107.725	50	438	0	0	windsock	1822	129	1	stimuli\windsock\windsock_03s.jpg	2	-1	1	0	windsock_03s.jpg	0	0.0	0	292.584708174738	292.63470910121003	0.0500009264724213	107725
107.825	50	439	0	0	log	943	130	1	stimuli\log\log_06s.jpg	5	-1	1	0	log_06s.jpg	0	0.0	0	292.684728069587	292.734714855116	0.0499867855287448	107825
107.925	50	440	0	0	quill	1263	131	1	stimuli\quill\quill_07s.jpg	6	-1	1	0	quill_07s.jpg	0	0.0	0	292.78472797206297	292.834706711881	0.0499787398184708	107925
108.025	50	441	0	0	saucer	1363	132	1	stimuli\saucer\saucer_07s.jpg	6	-1	1	0	saucer_07s.jpg	0	0.0	0	292.884727874538	292.934712709593	0.0499848350555112	108025
108.125	50	442	0	0	feather	574	133	1	stimuli\feather\feather_07s.jpg	6	-1	1	0	feather_07s.jpg	0	0.0	0	292.984753864625	293.034714074925	0.0499602103009238	108125
108.225	50	443	0	0	turban	1730	134	1	stimuli\turban\turban_12s.jpg	11	-1	1	0	turban_12s.jpg	0	0.0	0	293.084733774725	293.134719828828	0.0499860541021917	108225
108.325	50	444	0	0	clipper2	357	135	1	stimuli\clipper2\clipper2_05s.jpg	4	-1	1	0	clipper2_05s.jpg	0	0.0	0	293.18474611148497	293.234720462733	0.0499743512482382	108325
108.425	50	445	0	0	sawhorse	1367	136	1	stimuli\sawhorse\sawhorse_06s.jpg	5	-1	1	1	sawhorse_06s.jpg	0	0.0	0	293.284739918723	293.334718658542	0.0499787398184708	108425
108.525	50	446	0	0	home_plate	787	137	1	stimuli\home_plate\home_plate_06s.jpg	5	-1	1	0	home_plate_06s.jpg	0	0.0	0	293.38474347834205	293.434725143874	0.0499816655319592	108525
108.625	50	447	0	0	radio	1273	138	1	stimuli\radio\radio_09s.jpg	8	-1	1	0	radio_09s.jpg	0	0.0	0	293.484745818914	293.53472407111303	0.0499782521983434	108625
108.725	50	448	0	0	engine	557	139	1	stimuli\engine\engine_08s.jpg	7	-1	1	0	engine_08s.jpg	1	0.341924446383928	1	293.584751329006	293.634727874538	0.0499765455315355	108725
108.825	50	449	0	0	brooch	202	140	1	stimuli\brooch\brooch_11s.jpg	10	-1	1	0	brooch_11s.jpg	0	0.0	0	293.684752938148	293.734728752253	0.0499758141049824	108825
108.925	50	450	0	0	coin	385	141	1	stimuli\coin\coin_04s.jpg	3	-1	1	0	coin_04s.jpg	0	0.0	0	293.78475210919703	293.834731092822	0.0499789836248965	108925
109.025	50	451	0	0	crepe	440	142	1	stimuli\crepe\crepe_01b.jpg	0	-1	1	0	crepe_01b.jpg	0	0.0	0	293.884756400243	293.93473928482103	0.0499828845786396	109025
109.125	50	452	0	0	banner	70	143	1	stimuli\banner\banner_06s.jpg	5	-1	1	0	banner_06s.jpg	0	0.0	0	293.984759716051	294.03473723682004	0.0499775207681523	109125
109.225	50	453	0	0	groundhog	718	144	1	stimuli\groundhog\groundhog_01b.jpg	0	-1	1	0	groundhog_01b.jpg	0	0.0	0	294.08475839948	294.13474030881804	0.0499819093383849	109225
109.325	50	454	0	0	ravioli	1289	145	1	stimuli\ravioli\ravioli_01b.jpg	0	-1	1	0	ravioli_01b.jpg	0	0.0	0	294.184764884812	294.234745575104	0.0499806902917044	109325
109.425	50	455	0	0	harmonica	753	146	1	stimuli\harmonica\harmonica_01b.jpg	0	-1	1	0	harmonica_01b.jpg	0	0.0	0	294.284766981571	294.334747915673	0.0499809341017681	109425
109.525	50	456	0	0	arrow	38	147	1	stimuli\arrow\arrow_02s.jpg	1	-1	1	0	arrow_02s.jpg	0	0.0	0	294.384768834523	294.434751962912	0.0499831283887033	109525
109.625	50	457	0	0	board_game	153	148	1	stimuli\board_game\board_game_06s.jpg	5	-1	1	0	board_game_06s.jpg	0	0.0	0	294.484771175095	294.534751133957	0.0499799588615133	109625
109.725	50	458	0	0	vent	1758	149	1	stimuli\vent\vent_07s.jpg	6	-1	1	0	vent_07s.jpg	0	0.0	0	294.584772296617	294.634754205956	0.0499819093383849	109725
109.825	50	459	0	0	pipe2	1187	150	1	stimuli\pipe2\pipe2_07s.jpg	6	-1	1	0	pipe2_07s.jpg	0	0.0	0	294.684776831473	294.734759228431	0.0499823969585123	109825
109.925	50	460	0	0	baseball_glove	80	151	1	stimuli\baseball_glove\baseball_glove_12s.jpg	11	-1	1	0	baseball_glove_12s.jpg	0	0.0	0	294.784783316805	294.834764007097	0.0499806902917044	109925
110.025	50	461	0	0	hyena	815	152	1	stimuli\hyena\hyena_09s.jpg	8	-1	1	0	hyena_09s.jpg	0	0.0	0	294.88478297547	294.934747330532	0.0499643550610926	110025
110.125	50	462	0	0	prune	1244	153	1	stimuli\prune\prune_03s.jpg	2	-1	1	0	prune_03s.jpg	0	0.0	0	294.984758253195	295.034754791101	0.0499965379058267	110125
110.225	50	463	0	0	lava	903	154	1	stimuli\lava\lava_02s.jpg	1	-1	1	0	lava_02s.jpg	0	0.0	0	295.084780586138	295.13477492976	0.0499943436225294	110225
110.325	50	464	0	0	lettuce	920	155	1	stimuli\lettuce\lettuce_07n.jpg	6	-1	1	0	lettuce_07n.jpg	0	0.0	0	295.18479462956003	295.234783609376	0.0499889798156801	110325
110.425	50	465	0	0	dishwasher	491	156	1	stimuli\dishwasher\dishwasher_08s.jpg	7	-1	1	0	dishwasher_08s.jpg	0	0.0	0	295.28477941585203	295.33476010614703	0.0499806902953424	110425
110.525	50	466	0	0	alpaca	15	157	1	stimuli\alpaca\alpaca_04s.jpg	3	-1	1	0	alpaca_04s.jpg	0	0.0	0	295.38479809165403	295.434761715289	0.0499636236345395	110525
110.625	50	467	0	0	paper_plate	1114	158	1	stimuli\paper_plate\paper_plate_02s.jpg	1	-1	1	0	paper_plate_02s.jpg	0	0.0	0	295.48480067603697	295.534767713001	0.0499670369645173	110625
110.725	50	468	0	0	chalk	302	159	1	stimuli\chalk\chalk_06s.jpg	5	-1	1	0	chalk_06s.jpg	0	0.0	0	295.584801797559	295.634785901184	0.0499841036253201	110725
110.825	50	469	0	0	brass_knuckles	193	160	1	stimuli\brass_knuckles\brass_knuckles_08s.jpg	7	-1	1	0	brass_knuckles_08s.jpg	0	0.0	0	295.684810720984	295.734786535089	0.0499758141049824	110825
110.925	50	470	0	0	footprint	632	161	1	stimuli\footprint\footprint_05s.jpg	4	-1	1	0	footprint_05s.jpg	0	0.0	0	295.784809160603	295.834787656611	0.0499784960084071	110925
111.025	50	471	0	0	comb	389	162	1	stimuli\comb\comb_03s.jpg	2	-1	1	0	comb_03s.jpg	0	0.0	0	295.884810038318	295.9347956048	0.0499855664820643	111025
111.125	50	472	0	0	lime	930	163	1	stimuli\lime\lime_12s.jpg	11	-1	1	0	lime_12s.jpg	0	0.0	0	295.98481140365004	296.03479404441896	0.0499826407685759	111125
111.225	50	473	0	0	hatbox	758	164	1	stimuli\hatbox\hatbox_06s.jpg	5	-1	1	0	hatbox_06s.jpg	0	0.0	0	296.084819839456	296.134780049757	0.0499602103009238	111225
111.325	50	474	0	0	workbench	1835	165	1	stimuli\workbench\workbench_01b.jpg	0	-1	1	0	workbench_01b.jpg	0	0.0	0	296.184818766695	296.234801895083	0.0499831283887033	111325
111.425	50	475	0	0	hat	757	166	1	stimuli\hat\hat_02s.jpg	1	-1	1	0	hat_02s.jpg	0	0.0	0	296.284803796796	296.33478473089804	0.0499809341017681	111425
111.525	50	476	0	0	trap	1702	167	1	stimuli\trap\trap_01b.jpg	0	-1	1	0	trap_01b.jpg	0	0.0	0	296.384822960219	296.434805844794	0.0499828845750017	111525
111.625	50	477	0	0	carriage	276	168	1	stimuli\carriage\carriage_07s.jpg	6	-1	1	0	carriage_07s.jpg	0	0.0	0	296.484827982691	296.534790874895	0.0499628922043485	111625
111.725	50	478	0	0	pie	1168	169	1	stimuli\pie\pie_11s.jpg	10	-1	1	0	pie_11s.jpg	0	0.0	0	296.584828616596	296.634803943081	0.049975326484855004	111725
111.825	50	479	0	0	lab_coat	885	170	1	stimuli\lab_coat\lab_coat_12s.jpg	11	-1	1	0	lab_coat_12s.jpg	0	0.0	0	296.684830713359	296.73481408555404	0.049983372195129	111825
111.925	50	480	0	0	ostrich	1084	171	1	stimuli\ostrich\ostrich_10s.jpg	9	-1	1	0	ostrich_10s.jpg	0	0.0	0	296.784835248214	296.83481569469603	0.0499804464816407	111925
112.025	50	481	0	0	bead	100	172	1	stimuli\bead\bead_01b.jpg	0	-1	1	0	bead_01b.jpg	0	0.0	0	296.88482320402903	296.934827543835	0.050004339806037	112025
112.125	50	482	0	0	scoreboard	1383	173	1	stimuli\scoreboard\scoreboard_08s.jpg	7	-1	1	0	scoreboard_08s.jpg	0	0.0	0	296.984839441735	297.034821838693	0.0499823969585123	112125
112.225	50	483	0	0	coil	384	174	1	stimuli\coil\coil_10s.jpg	9	-1	1	0	coil_10s.jpg	0	0.0	0	297.084846658494	297.134823447836	0.0499767893415992	112225
112.325	50	484	0	0	juice	854	175	1	stimuli\juice\juice_04s.jpg	3	-1	1	0	juice_04s.jpg	0	0.0	0	297.184843147639	297.23481164746005	0.0499684998212615	112325
112.425	50	485	0	0	iguana	825	176	1	stimuli\iguana\iguana_11s.jpg	10	-1	1	0	iguana_11s.jpg	0	0.0	0	297.284848657731	297.334810087079	0.0499614293476043	112425
112.525	50	486	0	0	weasel	1797	177	1	stimuli\weasel\weasel_02s.jpg	1	-1	1	0	weasel_02s.jpg	0	0.0	0	297.38485075449404	297.434835589545	0.0499848350518732	112525
112.625	50	487	0	0	dollhouse	500	178	1	stimuli\dollhouse\dollhouse_12s.jpg	11	-1	1	0	dollhouse_12s.jpg	0	0.0	0	297.484850900779	297.534831591071	0.0499806902917044	112625
112.725	50	488	0	0	speedboat	1511	179	1	stimuli\speedboat\speedboat_05s.jpg	4	-1	1	0	speedboat_05s.jpg	0	0.0	0	297.584854704208	297.634837101166	0.0499823969585123	112725
112.825	50	489	0	0	pin	1177	180	1	stimuli\pin\pin_01b.jpg	0	-1	1	0	pin_01b.jpg	0	0.0	0	297.68486167715696	297.734841148402	0.0499794712450239	112825
112.925	50	490	0	0	plate	1197	181	1	stimuli\plate\plate_06s.jpg	5	-1	1	0	plate_06s.jpg	0	0.0	0	297.784847926305	297.834841782307	0.049993856002402	112925
113.025	50	491	0	0	magnifier	957	182	1	stimuli\magnifier\magnifier_07s.jpg	6	-1	1	0	magnifier_07s.jpg	0	0.0	0	297.884841245927	297.934824861932	0.0499836160051927	113025
113.125	50	492	0	0	arm	36	183	1	stimuli\arm\arm_10s.jpg	9	-1	1	0	arm_10s.jpg	0	0.0	0	297.984874794103	298.034829396787	0.0499546026840108	113125
113.225	50	493	0	0	salami	1349	184	1	stimuli\salami\salami_05s.jpg	4	-1	1	0	salami_05s.jpg	0	0.0	0	298.08486616324797	298.134810769745	0.0499446064968652	113225
113.325	50	494	0	0	pizza	1192	185	1	stimuli\pizza\pizza_02s.jpg	1	-1	1	0	pizza_02s.jpg	0	0.0	0	298.18487533048403	298.234853582682	0.0499782521983434	113325
113.425	50	495	0	0	blueberry	149	186	1	stimuli\blueberry\blueberry_03s.jpg	2	-1	1	0	blueberry_03s.jpg	0	0.0	0	298.284879133913	298.33483812516397	0.0499589912506053	113425
113.525	50	496	0	0	bonsai	164	187	1	stimuli\bonsai\bonsai_10s.jpg	9	-1	1	0	bonsai_10s.jpg	0	0.0	0	298.384874891628	298.434854362873	0.0499794712450239	113525
113.625	50	497	0	0	lamppost	892	188	1	stimuli\lamppost\lamppost_12s.jpg	11	-1	1	0	lamppost_12s.jpg	0	0.0	0	298.484877963627	298.534857678682	0.0499797150550876	113625
113.725	50	498	0	0	twig	1740	189	1	stimuli\twig\twig_01b.jpg	0	-1	1	0	twig_01b.jpg	0	0.0	0	298.584864944201	298.634868796391	0.0500038521895476	113725
113.825	50	499	0	0	teddy_bear	1635	190	1	stimuli\teddy_bear\teddy_bear_10s.jpg	9	-1	1	0	teddy_bear_10s.jpg	0	0.0	0	298.684884839051	298.734866504583	0.0499816655319592	113825
113.925	50	500	0	0	checkers	311	191	1	stimuli\checkers\checkers_11s.jpg	10	-1	1	0	checkers_11s.jpg	0	0.0	0	298.784886204387	298.834850315638	0.04996411125102901	113925
114.025	50	501	0	0	stick	1552	192	1	stimuli\stick\stick_06s.jpg	5	-1	1	0	stick_06s.jpg	0	0.0	0	298.884888544955	298.93486704096404	0.0499784960084071	114025
114.125	50	502	0	0	whistle	1812	193	1	stimuli\whistle\whistle_12s.jpg	11	-1	1	0	whistle_12s.jpg	0	0.0	0	298.984890641717	299.034870600583	0.0499799588651513	114125
114.225	50	503	0	0	orange	1078	194	1	stimuli\orange\orange_10s.jpg	9	-1	1	0	orange_10s.jpg	0	0.0	0	299.084892250859	299.134875379248	0.0499831283887033	114225
114.325	50	504	0	0	projector	1242	195	1	stimuli\projector\projector_11s.jpg	10	-1	1	0	projector_11s.jpg	0	0.0	0	299.184895566668	299.234862847443	0.04996728077458099	114325
114.425	50	505	0	0	paint	1096	196	1	stimuli\paint\paint_09s.jpg	8	-1	1	0	paint_09s.jpg	0	0.0	0	299.284881084386	299.334871770869	0.0499906864824879	114425
114.525	50	506	0	0	racket	1270	197	1	stimuli\racket\racket_10s.jpg	9	-1	1	0	racket_10s.jpg	0	0.0	0	299.384905611616	299.434882888578	0.0499772769617266	114525
114.625	50	507	0	0	undershirt	1744	198	1	stimuli\undershirt\undershirt_06s.jpg	5	-1	1	1	undershirt_06s.jpg	0	0.0	0	299.484904295045	299.534881572006	0.0499772769617266	114625
114.725	50	508	0	0	wheat	1805	199	1	stimuli\wheat\wheat_03n.jpg	2	-1	1	0	wheat_03n.jpg	0	0.0	0	299.58488249848205	299.634882937338	0.0500004388559319	114725
114.825	50	509	0	0	toilet_paper	1671	200	1	stimuli\toilet_paper\toilet_paper_06s.jpg	5	-1	1	0	toilet_paper_06s.jpg	0	0.0	0	299.684901661905	299.734886253147	0.0499845912418095	114825
114.925	50	510	0	0	cheese	312	201	1	stimuli\cheese\cheese_05n.jpg	4	-1	1	0	cheese_05n.jpg	1	0.34190689210299796	1	299.784903027237	299.834892982286	0.0499899550486589	114925
115.025	50	511	0	0	elbow	552	202	1	stimuli\elbow\elbow_05s.jpg	4	-1	1	0	elbow_05s.jpg	0	0.0	0	299.88491170685296	299.934893860001	0.0499821531484486	115025
115.125	50	512	0	0	shopping_cart	1428	203	1	stimuli\shopping_cart\shopping_cart_03s.jpg	2	-1	1	0	shopping_cart_03s.jpg	0	0.0	0	299.98491355980497	300.034897907237	0.0499843474317458	115125
115.225	50	513	0	0	guitar	723	204	1	stimuli\guitar\guitar_09n.jpg	8	-1	1	0	guitar_09n.jpg	0	0.0	0	300.084914681327	300.13489829733203	0.0499836160051927	115225
115.325	50	514	0	0	top_hat	1682	205	1	stimuli\top_hat\top_hat_05s.jpg	4	-1	1	0	top_hat_05s.jpg	0	0.0	0	300.184924092373	300.234897712191	0.0499736198180472	115325
115.425	50	515	0	0	flashbulb	610	206	1	stimuli\flashbulb\flashbulb_11n.jpg	10	-1	1	0	flashbulb_11n.jpg	0	0.0	0	300.284921069135	300.334901028	0.0499799588651513	115425
115.525	50	516	0	0	rickshaw	1310	207	1	stimuli\rickshaw\rickshaw_12s.jpg	11	-1	1	0	rickshaw_12s.jpg	0	0.0	0	300.384924384944	300.434904587615	0.049980202671577	115525
115.625	50	517	0	0	raspberry	1284	208	1	stimuli\raspberry\raspberry_11s.jpg	10	-1	1	0	raspberry_11s.jpg	0	0.0	0	300.48492501884897	300.534904733904	0.0499797150550876	115625
115.725	50	518	0	0	amber	18	209	1	stimuli\amber\amber_09s.jpg	8	-1	1	0	amber_09s.jpg	0	0.0	0	300.584930285131	300.63491195066297	0.0499816655319592	115725
115.825	50	519	0	0	water_bottle	1787	210	1	stimuli\water_bottle\water_bottle_03s.jpg	2	-1	1	0	water_bottle_03s.jpg	0	0.0	0	300.68493286951	300.734911609328	0.0499787398184708	115825
115.925	50	520	0	0	blender	138	211	1	stimuli\blender\blender_09s.jpg	8	-1	1	0	blender_09s.jpg	0	0.0	0	300.784933015795	300.834913949901	0.049980934105405994	115925
116.025	50	521	0	0	coffee_table	381	212	1	stimuli\coffee_table\coffee_table_07s.jpg	6	-1	1	0	coffee_table_07s.jpg	0	0.0	0	300.884937794461	300.934917753326	0.0499799588651513	116025
116.125	50	522	0	0	nail_file	1048	213	1	stimuli\nail_file\nail_file_04s.jpg	3	-1	1	0	nail_file_04s.jpg	0	0.0	0	300.98493818455603	301.034917899611	0.0499797150550876	116125
116.225	50	523	0	0	stilt	1555	214	1	stimuli\stilt\stilt_11s.jpg	10	-1	1	0	stilt_11s.jpg	0	0.0	0	301.084941987985	301.134924628754	0.0499826407685759	116225
116.325	50	524	0	0	star_fruit	1540	215	1	stimuli\star_fruit\star_fruit_01b.jpg	0	-1	1	0	star_fruit_01b.jpg	0	0.0	0	301.184947010457	301.23492233694196	0.049975326484855004	116325
116.425	50	525	0	0	hairpin	737	216	1	stimuli\hairpin\hairpin_02s.jpg	1	-1	1	0	hairpin_02s.jpg	0	0.0	0	301.284946912936	301.334927847038	0.0499809341017681	116425
116.525	50	526	0	0	t-shirt	1606	217	1	stimuli\t-shirt\t-shirt_10s.jpg	9	-1	1	0	t-shirt_10s.jpg	0	0.0	0	301.38494803445803	301.434930675226	0.0499826407685759	116525
116.625	50	527	0	0	guillotine	721	218	1	stimuli\guillotine\guillotine_05s.jpg	4	-1	1	0	guillotine_05s.jpg	0	0.0	0	301.484950862647	301.53493009008497	0.0499792274385982	116625
116.725	50	528	0	0	bench	120	219	1	stimuli\bench\bench_04s.jpg	3	-1	1	0	bench_04s.jpg	0	0.0	0	301.584959298452	301.634939013507	0.0499797150550876	116725
116.825	50	529	0	0	sledgehammer	1461	220	1	stimuli\sledgehammer\sledgehammer_04s.jpg	3	-1	1	0	sledgehammer_04s.jpg	0	0.0	0	301.684956762834	301.73493842836604	0.0499816655319592	116825
116.925	50	530	0	0	soccer_ball	1488	221	1	stimuli\soccer_ball\soccer_ball_06s.jpg	5	-1	1	0	soccer_ball_06s.jpg	0	0.0	0	301.784958615786	301.834939062272	0.0499804464852787	116925
117.025	50	531	0	0	woman	1832	222	1	stimuli\woman\woman_08s.jpg	7	-1	1	0	woman_08s.jpg	0	0.0	0	301.884964125882	301.934942865697	0.0499787398148328	117025
117.125	50	532	0	0	mold2	1013	223	1	stimuli\mold2\mold2_04s.jpg	3	-1	1	0	mold2_04s.jpg	0	0.0	0	301.984965003594	302.03494325579203	0.0499782521983434	117125
117.225	50	533	0	0	extinguisher	563	224	1	stimuli\extinguisher\extinguisher_05s.jpg	4	-1	1	0	extinguisher_05s.jpg	0	0.0	0	302.084966856546	302.134965101119	0.0499982445726346	117225
117.325	50	534	0	0	ice_cream	818	225	1	stimuli\ice_cream\ice_cream_09s.jpg	8	-1	1	0	ice_cream_09s.jpg	0	0.0	0	302.184970416165	302.234957445504	0.0499870293388085	117325
117.425	50	535	0	0	chicken2	323	226	1	stimuli\chicken2\chicken2_08s.jpg	7	-1	1	1	chicken2_08s.jpg	0	0.0	0	302.284963248167	302.33494686417197	0.0499836160051927	117425
117.525	50	536	0	0	bandage	66	227	1	stimuli\bandage\bandage_08s.jpg	7	-1	1	0	bandage_08s.jpg	0	0.0	0	302.38498241159	302.434966515215	0.0499841036253201	117525
117.625	50	537	0	0	buggy	213	228	1	stimuli\buggy\buggy_02s.jpg	1	-1	1	0	buggy_02s.jpg	0	0.0	0	302.484970123594	302.534966905307	0.0499967817122524	117625
117.725	50	538	0	0	wine_cooler	1825	229	1	stimuli\wine_cooler\wine_cooler_03s.jpg	2	-1	1	0	wine_cooler_03s.jpg	1	0.304233214450505	1	302.584987580347	302.634968758259	0.0499811779118318	117725
117.825	50	539	0	0	hairbrush	734	230	1	stimuli\hairbrush\hairbrush_03s.jpg	2	-1	1	0	hairbrush_03s.jpg	0	0.0	0	302.684996016156	302.734978169305	0.0499821531484486	117825
117.925	50	540	0	0	palm_tree	1102	231	1	stimuli\palm_tree\palm_tree_01b.jpg	0	-1	1	0	palm_tree_01b.jpg	0	0.0	0	302.784993968155	302.83497612130697	0.0499821531520865	117925
118.025	50	541	0	0	doorstop	512	232	1	stimuli\doorstop\doorstop_05s.jpg	4	-1	1	0	doorstop_05s.jpg	0	0.0	0	302.885001916344	302.934979193305	0.0499772769617266	118025
118.125	50	542	0	0	jacket	836	233	1	stimuli\jacket\jacket_04s.jpg	3	-1	1	0	jacket_04s.jpg	0	0.0	0	302.984983045491	303.034981290064	0.0499982445726346	118125
118.225	50	543	0	0	cord	407	234	1	stimuli\cord\cord_03s.jpg	2	-1	1	0	cord_03s.jpg	0	0.0	0	303.08500172129396	303.134983630636	0.0499819093420228	118225
118.325	50	544	0	0	confetti	396	235	1	stimuli\confetti\confetti_07s.jpg	6	-1	1	0	confetti_07s.jpg	0	0.0	0	303.18500308663	303.234970855021	0.0499677683910704	118325
118.425	50	545	0	0	okra	1074	236	1	stimuli\okra\okra_12s.jpg	11	-1	1	0	okra_12s.jpg	0	0.0	0	303.28499006720403	303.33496978226003	0.0499797150550876	118425
118.525	50	546	0	0	ketchup	867	237	1	stimuli\ketchup\ketchup_05s.jpg	4	-1	1	0	ketchup_05s.jpg	0	0.0	0	303.384996796343	303.434990408539	0.0499936121959763	118525
118.625	50	547	0	0	bomb	160	238	1	stimuli\bomb\bomb_09s.jpg	8	-1	1	0	bomb_09s.jpg	0	0.0	0	303.48501498453	303.53499372434504	0.0499787398148328	118625
118.725	50	548	0	0	swizzle_stick	1601	239	1	stimuli\swizzle_stick\swizzle_stick_06s.jpg	5	-1	1	0	swizzle_stick_06s.jpg	0	0.0	0	303.584991968917	303.634967783022	0.0499758141049824	118725
118.825	50	549	0	0	crown	448	240	1	stimuli\crown\crown_12s.jpg	11	-1	1	0	crown_12s.jpg	0	0.0	0	303.68498650758596	303.734974512161	0.0499880045754253	118825
118.925	50	550	0	0	cream_cheese	437	241	1	stimuli\cream_cheese\cream_cheese_02s.jpg	1	-1	1	0	cream_cheese_02s.jpg	0	0.0	0	303.785019811956	303.834998307964	0.0499784960084071	118925
119.025	50	551	0	0	mousetrap	1029	242	1	stimuli\mousetrap\mousetrap_06n.jpg	5	-1	1	0	mousetrap_06n.jpg	0	0.0	0	303.885024346811	303.93500333043596	0.0499789836248965	119025
119.125	50	552	0	0	basket	82	243	1	stimuli\basket\basket_02s.jpg	1	-1	1	0	basket_02s.jpg	0	0.0	0	303.985024980717	304.03500762148497	0.0499826407685759	119125
119.225	50	553	0	0	rollerblade	1326	244	1	stimuli\rollerblade\rollerblade_03s.jpg	2	-1	1	0	rollerblade_03s.jpg	0	0.0	0	304.085032685092	304.134984605873	0.0499519207805861	119225
119.325	50	554	0	0	satellite	1360	245	1	stimuli\satellite\satellite_11s.jpg	10	-1	1	0	satellite_11s.jpg	0	0.0	0	304.185038926615	304.234995967392	0.0499570407773717	119325
119.425	50	555	0	0	overalls	1090	246	1	stimuli\overalls\overalls_03s.jpg	2	-1	1	0	overalls_03s.jpg	0	0.0	0	304.285037122427	304.334991725107	0.0499546026803728	119425
119.525	50	556	0	0	record_player	1296	247	1	stimuli\record_player\record_player_09s.jpg	8	-1	1	0	record_player_09s.jpg	0	0.0	0	304.385032880142	304.435020640907	0.0499877607653616	119525
119.625	50	557	0	0	ratchet	1286	248	1	stimuli\ratchet\ratchet_06s.jpg	5	-1	1	0	ratchet_06s.jpg	0	0.0	0	304.485020835957	304.53500128243803	0.0499804464816407	119625
119.725	50	558	0	0	trolley	1715	249	1	stimuli\trolley\trolley_04s.jpg	3	-1	1	0	trolley_04s.jpg	0	0.0	0	304.585024151762	304.635010449674	0.0499862979122554	119725
119.825	50	559	0	0	avocado	43	250	1	stimuli\avocado\avocado_07s.jpg	6	-1	1	0	avocado_07s.jpg	0	0.0	0	304.685047459945	304.735007182626	0.0499597226807964	119825
119.925	50	560	0	0	wheelchair	1808	251	1	stimuli\wheelchair\wheelchair_08s.jpg	7	-1	1	0	wheelchair_08s.jpg	0	0.0	0	304.785075888125	304.835015130815	0.0499392426900158	119925
120.025	50	561	0	0	swing_set	1599	252	1	stimuli\swing_set\swing_set_08s.jpg	7	-1	1	0	swing_set_08s.jpg	0	0.0	0	304.885048727756	304.935030149474	0.0499814217182575	120025
120.125	50	562	0	0	mashed_potato	979	253	1	stimuli\mashed_potato\mashed_potato_08s.jpg	7	-1	1	0	mashed_potato_08s.jpg	0	0.0	0	304.98505179975496	305.03503151481004	0.0499797150550876	120125
120.225	50	563	0	0	roller	1324	254	1	stimuli\roller\roller_11s.jpg	10	-1	1	0	roller_11s.jpg	0	0.0	0	305.085052433657	305.135037512522	0.0499850788655749	120225
120.325	50	564	0	0	wig	1816	255	1	stimuli\wig\wig_01s.jpg	0	-1	1	0	wig_01s.jpg	0	0.0	0	305.185056968512	305.235021323573	0.0499643550610926	120325
120.425	50	565	0	0	seal	1397	256	1	stimuli\seal\seal_06s.jpg	5	-1	1	0	seal_06s.jpg	0	0.0	0	305.28505784622797	305.335037805093	0.0499799588651513	120425
120.525	50	566	0	0	fast_food	572	257	1	stimuli\fast_food\fast_food_02s.jpg	1	-1	1	0	fast_food_02s.jpg	0	0.0	0	305.38506164965304	305.435042583758	0.049980934105405994	120525
120.625	50	567	0	0	beer	113	258	1	stimuli\beer\beer_12s.jpg	11	-1	1	0	beer_12s.jpg	0	0.0	0	305.485062283558	305.53504370528	0.0499814217218955	120625
120.725	50	568	0	0	crouton	445	259	1	stimuli\crouton\crouton_07s.jpg	6	-1	1	0	crouton_07s.jpg	0	0.0	0	305.585066818414	305.63505311632304	0.0499862979086174	120725
120.825	50	569	0	0	wind_chimes	1817	260	1	stimuli\wind_chimes\wind_chimes_01s.jpg	0	-1	1	0	wind_chimes_01s.jpg	0	0.0	0	305.685067208509	305.735035708331	0.0499684998212615	120825
120.925	50	570	0	0	oyster	1092	261	1	stimuli\oyster\oyster_05s.jpg	4	-1	1	0	oyster_05s.jpg	0	0.0	0	305.78507345003203	305.835074620318	0.0500011702861229	120925
121.025	50	571	0	0	sunroof	1586	262	1	stimuli\sunroof\sunroof_04s.jpg	3	-1	1	0	sunroof_04s.jpg	0	0.0	0	305.885057017276	305.93505769994204	0.0500006826659956	121025
121.125	50	572	0	0	butter	228	263	1	stimuli\butter\butter_11s.jpg	10	-1	1	0	butter_11s.jpg	0	0.0	0	305.985075936889	306.035063697655	0.0499877607653616	121125
121.225	50	573	0	0	steering_wheel	1546	264	1	stimuli\steering_wheel\steering_wheel_02s.jpg	1	-1	1	0	steering_wheel_02s.jpg	0	0.0	0	306.085083153648	306.135060430606	0.0499772769580886	121225
121.325	50	574	0	0	horseshoe	799	265	1	stimuli\horseshoe\horseshoe_03s.jpg	2	-1	1	0	horseshoe_03s.jpg	0	0.0	0	306.18508037422004	306.235060576892	0.049980202671577	121325
121.425	50	575	0	0	cranberry	430	266	1	stimuli\cranberry\cranberry_05s.jpg	4	-1	1	0	cranberry_05s.jpg	0	0.0	0	306.285070036698	306.335054140323	0.0499841036253201	121425
121.525	50	576	0	0	sugar_cube	1579	267	1	stimuli\sugar_cube\sugar_cube_11s.jpg	10	-1	1	0	sugar_cube_11s.jpg	0	0.0	0	306.385087493454	306.435070378033	0.0499828845786396	121525
121.625	50	577	0	0	hanger	751	268	1	stimuli\hanger\hanger_10s.jpg	9	-1	1	0	hanger_10s.jpg	0	0.0	0	306.485088858786	306.53507076812804	0.0499819093420228	121625
121.725	50	578	0	0	anklet	23	269	1	stimuli\anklet\anklet_12s.jpg	11	-1	1	0	anklet_12s.jpg	0	0.0	0	306.585077302221	306.635073352507	0.0499960502856993	121725
121.825	50	579	0	0	guardrail	720	270	1	stimuli\guardrail\guardrail_01b.jpg	0	-1	1	0	guardrail_01b.jpg	0	0.0	0	306.685104023734	306.73505740737204	0.0499533836373303	121825
121.925	50	580	0	0	clipboard	355	271	1	stimuli\clipboard\clipboard_08s.jpg	7	-1	1	0	clipboard_08s.jpg	0	0.0	0	306.785081251932	306.83505999175	0.0499787398184708	121925
122.025	50	581	0	0	punching_bag	1256	272	1	stimuli\punching_bag\punching_bag_04s.jpg	3	-1	1	0	punching_bag_04s.jpg	0	0.0	0	306.885082617267	306.93508061803	0.0499980007625709	122025
122.125	50	582	0	0	easter_egg	543	273	1	stimuli\easter_egg\easter_egg_03s.jpg	2	-1	1	0	easter_egg_03s.jpg	0	0.0	0	306.985102512117	307.035082958599	0.0499804464816407	122125
122.225	50	583	0	0	propeller	1243	274	1	stimuli\propeller\propeller_04s.jpg	3	-1	1	0	propeller_04s.jpg	0	0.0	0	307.085103633639	307.135092613451	0.0499889798120421	122225
122.325	50	584	0	0	spear	1510	275	1	stimuli\spear\spear_02s.jpg	1	-1	1	0	spear_02s.jpg	0	0.0	0	307.185125235155	307.235094710213	0.0499694750578783	122325
122.425	50	585	0	0	hearing_aid	770	276	1	stimuli\hearing_aid\hearing_aid_10s.jpg	9	-1	1	0	hearing_aid_10s.jpg	0	0.0	0	307.285093198596	307.335090711738	0.0499975131424435	122425
122.525	50	586	0	0	chin	330	277	1	stimuli\chin\chin_10s.jpg	9	-1	1	0	chin_10s.jpg	0	0.0	0	307.385116262969	307.435110362778	0.0499940998088277	122525
122.625	50	587	0	0	cockroach	373	278	1	stimuli\cockroach\cockroach_07s.jpg	6	-1	1	0	cockroach_07s.jpg	0	0.0	0	307.485116653064	307.535093930022	0.0499772769580886	122625
122.725	50	588	0	0	painting	1098	279	1	stimuli\painting\painting_11s.jpg	10	-1	1	0	painting_11s.jpg	0	0.0	0	307.58510095173597	307.635097245831	0.049996294095763	122725
122.825	50	589	0	0	motorcycle	1025	280	1	stimuli\motorcycle\motorcycle_01b.jpg	0	-1	1	0	motorcycle_01b.jpg	0	0.0	0	307.685124016109	307.735083982599	0.0499599664908601	122825
122.925	50	590	0	0	jelly_bean	844	281	1	stimuli\jelly_bean\jelly_bean_06s.jpg	5	-1	1	0	jelly_bean_06s.jpg	0	0.0	0	307.78511294716	307.835104365069	0.04999141790904099	122925
123.025	50	591	0	0	cougar	423	282	1	stimuli\cougar\cougar_09s.jpg	8	-1	1	0	cougar_09s.jpg	0	0.0	0	307.885128697249	307.935093296121	0.0499645988711563	123025
123.125	50	592	0	0	curling_iron	463	283	1	stimuli\curling_iron\curling_iron_12s.jpg	11	-1	1	0	curling_iron_12s.jpg	0	0.0	0	307.98511519020803	308.035107583353	0.0499923931456578	123125
123.225	50	593	0	0	shorts	1430	284	1	stimuli\shorts\shorts_07s.jpg	6	-1	1	0	shorts_07s.jpg	0	0.0	0	308.085115824109	308.135098708688	0.0499828845786396	123225
123.325	50	594	0	0	pedal	1136	285	1	stimuli\pedal\pedal_10s.jpg	9	-1	1	0	pedal_10s.jpg	0	0.0	0	308.18513815705603	308.235117384491	0.0499792274349602	123325
123.425	50	595	0	0	filing_cabinet	585	286	1	stimuli\filing_cabinet\filing_cabinet_07s.jpg	6	-1	1	0	filing_cabinet_07s.jpg	0	0.0	0	308.28513684048403	308.335099001259	0.0499621607741574	123425
123.525	50	596	0	0	snowball	1480	287	1	stimuli\snowball\snowball_03s.jpg	2	-1	1	0	snowball_03s.jpg	0	0.0	0	308.385139912483	308.435125235155	0.0499853226720006	123525
123.625	50	597	0	0	hammock	742	288	1	stimuli\hammock\hammock_07s.jpg	6	-1	1	0	hammock_07s.jpg	0	0.0	0	308.48512664925096	308.535122455727	0.0499958064756356	123625
123.725	50	598	0	0	boot	169	289	1	stimuli\boot\boot_09s.jpg	8	-1	1	0	boot_09s.jpg	0	0.0	0	308.58512898982	308.635126502963	0.0499975131424435	123725
123.825	50	599	0	0	screen1	1388	290	1	stimuli\screen1\screen1_06s.jpg	5	-1	1	0	screen1_06s.jpg	0	0.0	0	308.68514888467	308.735119334968	0.0499704502981331	123825
123.925	50	600	0	0	tape	1622	291	1	stimuli\tape\tape_11s.jpg	10	-1	1	0	tape_11s.jpg	0	0.0	0	308.785145861435	308.83511996887	0.0499741074345366	123925
124.025	50	601	0	0	typewriter	1741	292	1	stimuli\typewriter\typewriter_09s.jpg	8	-1	1	0	typewriter_09s.jpg	0	0.0	0	308.88514478867	308.935123772299	0.0499789836285345	124025
124.125	50	602	0	0	clove	365	293	1	stimuli\clove\clove_11s.jpg	10	-1	1	0	clove_11s.jpg	0	0.0	0	308.985145910196	309.03512489382	0.0499789836248965	124125
124.225	50	603	0	0	radish	1274	294	1	stimuli\radish\radish_12s.jpg	11	-1	1	0	radish_12s.jpg	0	0.0	0	309.085152883144	309.135133573436	0.0499806902917044	124225
124.325	50	604	0	0	panda	1105	295	1	stimuli\panda\panda_09s.jpg	8	-1	1	0	panda_09s.jpg	0	0.0	0	309.18515717419	309.235137376865	0.049980202675214996	124325
124.425	50	605	0	0	hammer	741	296	1	stimuli\hammer\hammer_02s.jpg	1	-1	1	0	hammer_02s.jpg	0	0.0	0	309.285154394762	309.335137766961	0.049983372198767	124425
124.525	50	606	0	0	stingray	1556	297	1	stimuli\stingray\stingray_09s.jpg	8	-1	1	0	stingray_09s.jpg	0	0.0	0	309.385153809621	309.435140838959	0.0499870293388085	124525
124.625	50	607	0	0	car_door	268	298	1	stimuli\car_door\car_door_05s.jpg	4	-1	1	0	car_door_05s.jpg	0	0.0	0	309.485159075906	309.535141229055	0.0499821531484486	124625
124.725	50	608	0	0	bagel	55	299	1	stimuli\bagel\bagel_09s.jpg	8	-1	1	0	bagel_09s.jpg	0	0.0	0	309.585162147905	309.63514576391003	0.0499836160051927	124725
124.825	50	609	0	0	keg	866	300	1	stimuli\keg\keg_08s.jpg	7	-1	1	0	keg_08s.jpg	0	0.0	0	309.685168389424	309.73514712924197	0.0499787398184708	124825
124.925	50	610	0	0	pistachio	1188	301	1	stimuli\pistachio\pistachio_01b.jpg	0	-1	1	0	pistachio_01b.jpg	0	0.0	0	309.785166341426	309.83514800695804	0.0499816655319592	124925
125.025	50	611	0	0	badger	53	302	1	stimuli\badger\badger_08s.jpg	7	-1	1	0	badger_08s.jpg	0	0.0	0	309.885169657235	309.93514961610003	0.0499799588651513	125025
125.125	50	612	0	0	crane	431	303	1	stimuli\crane\crane_09s.jpg	8	-1	1	0	crane_09s.jpg	0	0.0	0	309.985172241613	310.03515220047797	0.0499799588651513	125125
