onset	duration	eventnumber	blocksequencenumber	isteststim	object	objectnumber	presentationnumber	sequencenumber	stim	stimnumber	teststimnumber	withinsequencenumber	istarget	stimname	response	rt	correct	time_stimon	time_stimoff	stimdur	sample
14.724	50	0	0	0	rice	1309	0	0	stimuli\rice\rice_09s.jpg	8	-1	0	0	rice_09s.jpg	1	0.0	0	190.488310188521	190.538286746014	0.0499765574932098	14724
14.824	50	1	0	0	butter	228	1	0	stimuli\butter\butter_12s.jpg	11	-1	0	0	butter_12s.jpg	0	0.0	0	190.588341322728	190.63831909932202	0.049977776594460004	14824
14.924	50	2	0	0	bacon	51	2	0	stimuli\bacon\bacon_02s.jpg	1	-1	0	0	bacon_02s.jpg	0	0.0	0	190.68832198856398	190.73831805121202	0.0499960626475513	14924
15.024	50	3	0	0	spool	1518	3	0	stimuli\spool\spool_11s.jpg	10	-1	0	0	spool_11s.jpg	0	0.0	0	190.78834922239201	190.838318953291	0.0499697308987379	15024
15.124	50	4	0	0	extinguisher	563	4	0	stimuli\extinguisher\extinguisher_08s.jpg	7	-1	0	0	extinguisher_08s.jpg	0	0.0	0	190.888337689918	190.938319123816	0.0499814338982105	15124
15.224	50	5	0	0	dolly	501	5	0	stimuli\dolly\dolly_08s.jpg	7	-1	0	0	dolly_08s.jpg	0	0.0	0	190.9883422493	191.038786677178	0.0504444278776646	15224
15.324	50	6	0	0	cucumber	457	6	0	stimuli\cucumber\cucumber_10s.jpg	9	-1	0	0	cucumber_10s.jpg	0	0.0	0	191.088345589582	191.13832702348	0.0499814338982105	15324
15.424	50	7	0	0	catapult	285	7	0	stimuli\catapult\catapult_05s.jpg	4	-1	0	0	catapult_05s.jpg	0	0.0	0	191.18834527256	191.23832719400502	0.0499819214455783	15424
15.524	50	8	0	0	spatula	1508	8	0	stimuli\spatula\spatula_11s.jpg	10	-1	0	0	spatula_11s.jpg	0	0.0	0	191.288358608726	191.338331265841	0.0499726571142673	15524
15.624	50	9	0	0	bucket	209	9	0	stimuli\bucket\bucket_06n.jpg	5	-1	0	0	bucket_06n.jpg	0	0.0	0	191.38835146511002	191.43833070481202	0.0499792397022247	15624
15.724	50	10	0	0	scrabble	1385	10	0	stimuli\scrabble\scrabble_07s.jpg	6	-1	0	0	scrabble_07s.jpg	0	0.0	0	191.488354317844	191.538334532641	0.0499802147969604	15724
15.824	50	11	0	0	splinter	1516	11	0	stimuli\splinter\splinter_08s.jpg	7	-1	0	0	splinter_08s.jpg	0	0.0	0	191.588357658125	191.638339823112	0.0499821649864316	15824
15.924	50	12	0	0	wing	1827	12	0	stimuli\wing\wing_05s.jpg	4	-1	0	0	wing_05s.jpg	0	0.0	0	191.68836002284698	191.738341213204	0.0499811903573573	15924
16.024	50	13	0	0	paperclip	1116	13	0	stimuli\paperclip\paperclip_12s.jpg	11	-1	0	0	paperclip_12s.jpg	0	0.0	0	191.78836482577	191.838342846371	0.0499780206009746	16024
16.124	50	14	0	0	bowler_hat	178	14	0	stimuli\bowler_hat\bowler_hat_07s.jpg	6	-1	0	0	bowler_hat_07s.jpg	0	0.0	0	191.888370848261	191.938349112403	0.0499782641418278	16124
16.224	50	15	0	0	poinsettia	1209	15	0	stimuli\poinsettia\poinsettia_09s.jpg	8	-1	0	0	poinsettia_09s.jpg	0	0.0	0	191.988367361482	192.038349770941	0.0499824094586074	16224
16.324	50	16	0	0	kazoo	864	16	0	stimuli\kazoo\kazoo_10s.jpg	9	-1	0	0	kazoo_10s.jpg	0	0.0	0	192.08837118931098	192.138355061412	0.0499838721007109	16324
16.424	50	17	0	0	banana_split	65	17	0	stimuli\banana_split\banana_split_01b.jpg	0	-1	0	0	banana_split_01b.jpg	0	0.0	0	192.188373798039	192.238354012836	0.0499802147969604	16424
16.524	50	18	0	0	ballot_box	61	18	0	stimuli\ballot_box\ballot_box_10s.jpg	9	-1	0	0	ballot_box_10s.jpg	0	0.0	0	192.288375675678	192.338355646469	0.0499799707904458	16524
16.624	50	19	0	0	brake	191	19	0	stimuli\brake\brake_01b.jpg	0	-1	0	0	brake_01b.jpg	0	0.0	0	192.38837755285198	192.43836020585098	0.0499826529994607	16624
16.724	50	20	0	0	crowbar	447	20	0	stimuli\crowbar\crowbar_03s.jpg	2	-1	0	0	crowbar_03s.jpg	0	0.0	0	192.488383331336	192.53836452122798	0.049981189891696	16724
16.824	50	21	0	0	deer	476	21	0	stimuli\deer\deer_07s.jpg	6	-1	0	0	deer_07s.jpg	0	0.0	0	192.58838374540198	192.638363472652	0.0499797272495925	16824
16.924	50	22	0	0	muff	1034	22	0	stimuli\muff\muff_03s.jpg	2	-1	0	0	muff_03s.jpg	0	0.0	0	192.688386354595	192.738368276041	0.0499819214455783	16924
17.024	50	23	0	0	potholder	1232	23	0	stimuli\potholder\potholder_09s.jpg	8	-1	0	0	potholder_09s.jpg	0	0.0	0	192.78838945086997	192.838372834958	0.0499833840876818	17024
17.124	50	24	0	0	bag	54	24	0	stimuli\bag\bag_07s.jpg	6	-1	0	0	bag_07s.jpg	0	0.0	0	192.88839864218602	192.938378369436	0.0499797272495925	17124
17.224	50	25	0	0	pepper1	1149	25	0	stimuli\pepper1\pepper1_08s.jpg	7	-1	0	0	pepper1_08s.jpg	0	0.0	0	192.98839954426498	193.03837561467702	0.0499760704115033	17224
17.324	50	26	0	0	cord	407	26	0	stimuli\cord\cord_03s.jpg	2	-1	0	0	cord_03s.jpg	0	0.0	0	193.088399227709	193.13838846329602	0.0499892355874181	17324
17.424	50	27	0	0	sling	1466	27	0	stimuli\sling\sling_05s.jpg	4	-1	0	0	sling_05s.jpg	0	0.0	0	193.18840012978802	193.23837912548302	0.0499789956957102	17424
17.524	50	28	0	0	rooster	1330	28	0	stimuli\rooster\rooster_03s.jpg	2	-1	0	0	rooster_03s.jpg	0	0.0	0	193.288407614455	193.338384415954	0.0499768014997244	17524
17.624	50	29	0	0	showerhead	1436	29	0	stimuli\showerhead\showerhead_05s.jpg	4	-1	0	0	showerhead_05s.jpg	0	0.0	0	193.388405590784	193.43838921934397	0.0499836285598576	17624
17.724	50	30	0	0	wreck	1840	30	0	stimuli\wreck\wreck_05s.jpg	4	-1	0	0	wreck_05s.jpg	0	0.0	0	193.488410394173	193.53838963341	0.0499792392365634	17724
17.824	50	31	0	0	jumpsuit	859	31	0	stimuli\jumpsuit\jumpsuit_02s.jpg	1	-1	0	0	jumpsuit_02s.jpg	0	0.0	0	193.588409833144	193.638391511049	0.0499816779047251	17824
17.924	50	32	0	0	crumb	451	32	0	stimuli\crumb\crumb_03s.jpg	2	-1	0	0	crumb_03s.jpg	0	0.0	0	193.688411710784	193.738392900676	0.049981189891696	17924
18.024	50	33	0	0	letter_opener	919	33	0	stimuli\letter_opener\letter_opener_05s.jpg	4	-1	0	0	letter_opener_05s.jpg	0	0.0	0	193.788415538147	193.83839721605202	0.0499816779047251	18024
18.124	50	34	0	0	pocket_watch	1206	34	0	stimuli\pocket_watch\pocket_watch_08s.jpg	7	-1	0	0	pocket_watch_08s.jpg	0	0.0	0	193.88841814733996	193.938407382928	0.0499892355874181	18124
18.224	50	35	0	0	face	569	35	0	stimuli\face\face_05s.jpg	4	-1	0	0	face_05s.jpg	0	0.0	0	193.988423193805	194.03840877255402	0.0499855787493289	18224
18.324	50	36	0	0	ticktacktoe	1657	36	0	stimuli\ticktacktoe\ticktacktoe_12s.jpg	11	-1	0	0	ticktacktoe_12s.jpg	0	0.0	0	194.088425802533	194.13840772444402	0.0499819219112396	18324
18.424	50	37	0	0	wand	1780	37	0	stimuli\wand\wand_10s.jpg	9	-1	0	0	wand_10s.jpg	0	0.0	0	194.18842597352298	194.23840838251598	0.0499824089929461	18424
18.524	50	38	0	0	almond	13	38	0	stimuli\almond\almond_12s.jpg	11	-1	0	0	almond_12s.jpg	0	0.0	0	194.288433946203	194.33841147879102	0.0499775325879455	18524
18.624	50	39	0	0	stiletto	1554	39	0	stimuli\stiletto\stiletto_07s.jpg	6	-1	0	0	stiletto_07s.jpg	0	0.0	0	194.388431190979	194.438414331526	0.0499831405468285	18624
18.724	50	40	0	0	thorn	1650	40	0	stimuli\thorn\thorn_10s.jpg	9	-1	0	0	thorn_10s.jpg	0	0.0	0	194.488436237909	194.53841864690202	0.0499824089929461	18724
18.824	50	41	0	0	chihuahua	326	41	0	stimuli\chihuahua\chihuahua_08s.jpg	7	-1	0	0	chihuahua_08s.jpg	0	0.0	0	194.588438846637	194.63842125563	0.0499824089929461	18824
18.924	50	42	0	0	shortbread	1429	42	0	stimuli\shortbread\shortbread_07s.jpg	6	-1	0	0	shortbread_07s.jpg	0	0.0	0	194.688444137108	194.738420938607	0.0499768014997244	18924
19.024	50	43	0	0	kebab	865	43	0	stimuli\kebab\kebab_03n.jpg	2	-1	0	0	kebab_03n.jpg	0	0.0	0	194.78844479564603	194.83842257223998	0.049977776594460004	19024
19.124	50	44	0	0	gourd	696	44	0	stimuli\gourd\gourd_03s.jpg	2	-1	0	0	gourd_03s.jpg	0	0.0	0	194.888445210177	194.938427131623	0.0499819214455783	19124
19.224	50	45	0	0	window	1818	45	0	stimuli\window\window_02s.jpg	1	-1	0	0	window_02s.jpg	0	0.0	0	194.98844928154702	195.03842974035098	0.0499804588034749	19224
19.324	50	46	0	0	chessboard	318	46	0	stimuli\chessboard\chessboard_12s.jpg	11	-1	0	0	chessboard_12s.jpg	0	0.0	0	195.088458716869	195.138430398423	0.0499716815538704	19324
19.424	50	47	0	0	crepe	440	47	0	stimuli\crepe\crepe_10s.jpg	9	-1	0	0	crepe_10s.jpg	0	0.0	0	195.188453523908	195.238436420448	0.04998289654031401	19424
19.524	50	48	0	0	stove1	1563	48	0	stimuli\stove1\stove1_03s.jpg	2	-1	0	0	stove1_03s.jpg	0	0.0	0	195.28845783928398	195.338439273182	0.0499814338982105	19524
19.624	50	49	0	0	golf_cart	689	49	0	stimuli\golf_cart\golf_cart_01b.jpg	0	-1	0	0	golf_cart_01b.jpg	0	0.0	0	195.388458253816	195.438442125916	0.0499838721007109	19624
19.724	50	50	0	0	yacht	1844	50	0	stimuli\yacht\yacht_02s.jpg	1	-1	0	0	yacht_02s.jpg	0	0.0	0	195.48846110654998	195.53844766039398	0.0499865538440645	19724
19.824	50	51	0	0	bracket	189	51	0	stimuli\bracket\bracket_04s.jpg	3	-1	0	0	bracket_04s.jpg	0	0.0	0	195.588465665467	195.638448074926	0.0499824094586074	19824
19.924	50	52	0	0	highlighter	778	52	0	stimuli\highlighter\highlighter_09s.jpg	8	-1	0	0	highlighter_09s.jpg	0	0.0	0	195.68846534844502	195.738450196106	0.0499848476611078	19924
20.024	50	53	0	0	breathalyzer	198	53	0	stimuli\breathalyzer\breathalyzer_02s.jpg	1	-1	0	1	breathalyzer_02s.jpg	0	0.0	0	195.788469664287	195.838450610172	0.0499809458851814	20024
20.124	50	54	0	0	hairdryer	735	54	0	stimuli\hairdryer\hairdryer_12s.jpg	11	-1	0	0	hairdryer_12s.jpg	0	0.0	0	195.888475198764	195.93845516955503	0.0499799707904458	20124
20.224	50	55	0	0	turntable	1735	55	0	stimuli\turntable\turntable_09s.jpg	8	-1	0	0	turntable_09s.jpg	0	0.0	0	195.988475125283	196.038462410681	0.0499872853979468	20224
20.324	50	56	0	0	grapevine	704	56	0	stimuli\grapevine\grapevine_02s.jpg	1	-1	0	0	grapevine_02s.jpg	0	0.0	0	196.088476514909	196.13846233766498	0.0499858227558434	20324
20.424	50	57	0	0	powder	1236	57	0	stimuli\powder\powder_06s.jpg	5	-1	0	0	powder_06s.jpg	0	0.0	0	196.18848229339298	196.238463239744	0.0499809463508427	20424
20.524	50	58	0	0	earwig	541	58	0	stimuli\earwig\earwig_06n.jpg	5	-1	0	0	earwig_06n.jpg	0	0.0	0	196.28848880296601	196.33846438583	0.0499755828641355	20524
20.624	50	59	0	0	throne	1652	59	0	stimuli\throne\throne_05s.jpg	4	-1	0	0	throne_05s.jpg	0	0.0	0	196.388484341558	196.43846699455798	0.0499826529994607	20624
20.724	50	60	0	0	bat2	88	60	0	stimuli\bat2\bat2_05s.jpg	4	-1	0	0	bat2_05s.jpg	0	0.0	0	196.488487193827	196.53847082238602	0.0499836285598576	20724
20.824	50	61	0	0	soldering_iron	1494	61	0	stimuli\soldering_iron\soldering_iron_12s.jpg	11	-1	0	0	soldering_iron_12s.jpg	0	0.0	0	196.58849272830398	196.63847123645198	0.0499785081483424	20824
20.924	50	62	0	0	lock	940	62	0	stimuli\lock\lock_05s.jpg	4	-1	0	0	lock_05s.jpg	0	0.0	0	196.688496556133	196.738477258943	0.0499807028099895	20924
21.024	50	63	0	0	painting	1098	63	0	stimuli\painting\painting_10s.jpg	9	-1	0	0	painting_10s.jpg	0	0.0	0	196.788503553718	196.838480355218	0.0499768014997244	21024
21.124	50	64	0	0	candy	255	64	0	stimuli\candy\candy_03s.jpg	2	-1	0	0	candy_03s.jpg	0	0.0	0	196.888502505142	196.93847711244598	0.0499746073037386	21124
21.224	50	65	0	0	helicopter	775	65	0	stimuli\helicopter\helicopter_07n.jpg	6	-1	0	0	helicopter_07n.jpg	0	0.0	0	196.98850121302502	197.03848435357202	0.0499831405468285	21224
21.324	50	66	0	0	bone	161	66	0	stimuli\bone\bone_12s.jpg	11	-1	0	0	bone_12s.jpg	0	0.0	0	197.08850552840198	197.13848988805	0.0499843596480787	21324
21.424	50	67	0	0	peacock	1130	67	0	stimuli\peacock\peacock_09s.jpg	8	-1	0	0	peacock_09s.jpg	0	0.0	0	197.18849545903498	197.23847835604099	0.0499828970059752	21424
21.524	50	68	0	0	fish	600	68	0	stimuli\fish\fish_05s.jpg	4	-1	0	0	fish_05s.jpg	0	0.0	0	197.288512208965	197.338493886404	0.0499816774390638	21524
21.624	50	69	0	0	train	1698	69	0	stimuli\train\train_01b.jpg	0	-1	0	0	train_01b.jpg	0	0.0	0	197.38850311469298	197.43849868979302	0.0499955751001835	21624
21.724	50	70	0	0	rattle	1287	70	0	stimuli\rattle\rattle_02s.jpg	1	-1	0	0	rattle_02s.jpg	0	0.0	0	197.488522302359	197.538501298521	0.0499789961613715	21724
21.824	50	71	0	0	raccoon	1266	71	0	stimuli\raccoon\raccoon_09s.jpg	8	-1	0	0	raccoon_09s.jpg	0	0.0	0	197.5885253991	197.638507320546	0.0499819214455783	21824
21.924	50	72	0	0	violin	1764	72	0	stimuli\violin\violin_08s.jpg	7	-1	0	0	violin_08s.jpg	0	0.0	0	197.688508503139	197.738506028429	0.0499975252896547	21924
22.024	50	73	0	0	hamburger	740	73	0	stimuli\hamburger\hamburger_01s.jpg	0	-1	0	0	hamburger_01s.jpg	0	0.0	0	197.788528422359	197.838509856258	0.0499814338982105	22024
22.124	50	74	0	0	pineapple	1182	74	0	stimuli\pineapple\pineapple_06s.jpg	5	-1	0	0	pineapple_06s.jpg	0	0.0	0	197.888534687925	197.938511977438	0.0499772895127535	22124
22.224	50	75	0	0	compost	393	75	0	stimuli\compost\compost_11s.jpg	10	-1	0	0	compost_11s.jpg	0	0.0	0	197.988530957606	198.038514586166	0.0499836285598576	22224
22.324	50	76	0	0	sidecar	1442	76	0	stimuli\sidecar\sidecar_08s.jpg	7	-1	0	0	sidecar_08s.jpg	0	0.0	0	198.088535273448	198.13851597579202	0.0499807023443282	22324
22.424	50	77	0	0	blindfold	142	77	0	stimuli\blindfold\blindfold_09s.jpg	8	-1	0	0	blindfold_09s.jpg	0	0.0	0	198.188538125716	198.238502005581	0.0499638798646629	22424
22.524	50	78	0	0	baton2	93	78	0	stimuli\baton2\baton2_03s.jpg	2	-1	0	0	baton2_03s.jpg	0	0.0	0	198.28854463528802	198.33852338744302	0.0499787521548569	22524
22.624	50	79	0	0	sandbox	1354	79	0	stimuli\sandbox\sandbox_04s.jpg	3	-1	0	0	sandbox_04s.jpg	0	0.0	0	198.38852822733998	198.438509173226	0.0499809458851814	22624
22.724	50	80	0	0	cushion	466	80	0	stimuli\cushion\cushion_11s.jpg	10	-1	0	0	cushion_11s.jpg	0	0.0	0	198.488547171	198.53851348906798	0.0499663180671632	22724
22.824	50	81	0	0	sundial	1583	81	0	stimuli\sundial\sundial_01b.jpg	0	-1	0	0	sundial_01b.jpg	0	0.0	0	198.588547097985	198.638514391147	0.0499672931618989	22824
22.924	50	82	0	0	fire_hydrant	592	82	0	stimuli\fire_hydrant\fire_hydrant_06s.jpg	5	-1	0	0	fire_hydrant_06s.jpg	0	0.0	0	198.688550925814	198.73851626832	0.0499653425067663	22924
23.024	50	83	0	0	bonnet	163	83	0	stimuli\bonnet\bonnet_10s.jpg	9	-1	0	0	bonnet_10s.jpg	0	0.0	0	198.788558898494	198.83851960860198	0.0499607101082802	23024
23.124	50	84	0	0	valve	1751	84	0	stimuli\valve\valve_01b.jpg	0	-1	0	0	valve_01b.jpg	0	0.0	0	198.888556874823	198.938536114525	0.0499792397022247	23124
23.224	50	85	0	0	woman	1832	85	0	stimuli\woman\woman_10s.jpg	9	-1	0	0	woman_10s.jpg	0	0.0	0	198.98855655780102	199.038536772598	0.0499802147969604	23224
23.324	50	86	0	0	brussels_sprouts	206	86	0	stimuli\brussels_sprouts\brussels_sprouts_08s.jpg	7	-1	0	0	brussels_sprouts_08s.jpg	0	0.0	0	199.08855867898103	199.138538649771	0.0499799707904458	23324
23.424	50	87	0	0	wedge	1801	87	0	stimuli\wedge\wedge_10s.jpg	9	-1	0	0	wedge_10s.jpg	0	0.0	0	199.188561287709	199.238544184249	0.04998289654031401	23424
23.524	50	88	0	0	wheelchair	1808	88	0	stimuli\wheelchair\wheelchair_06s.jpg	5	-1	0	0	wheelchair_06s.jpg	0	0.0	0	199.28856487153098	199.338548743632	0.0499838721007109	23524
23.624	50	89	0	0	lighter	928	89	0	stimuli\lighter\lighter_06s.jpg	5	-1	0	0	lighter_06s.jpg	0	0.0	0	199.388567236718	199.438547207508	0.0499799707904458	23624
23.724	50	90	0	0	reindeer	1301	90	0	stimuli\reindeer\reindeer_05s.jpg	4	-1	0	0	reindeer_05s.jpg	0	0.0	0	199.488568382338	199.53855639929	0.0499880169518292	23724
23.824	50	91	0	0	tree	1708	91	0	stimuli\tree\tree_01b.jpg	0	-1	0	0	tree_01b.jpg	0	0.0	0	199.58857147907798	199.63855730136902	0.0499858222901821	23824
23.924	50	92	0	0	handkerchief	747	92	0	stimuli\handkerchief\handkerchief_02s.jpg	1	-1	0	0	handkerchief_02s.jpg	0	0.0	0	199.688575550448	199.73855917854198	0.0499836280941963	23924
24.024	50	93	0	0	chip	333	93	0	stimuli\chip\chip_12s.jpg	11	-1	0	0	chip_12s.jpg	0	0.0	0	199.788581572473	199.838560568634	0.0499789961613715	24024
24.124	50	94	0	0	hatbox	758	94	0	stimuli\hatbox\hatbox_06s.jpg	5	-1	0	0	hatbox_06s.jpg	0	0.0	0	199.888583206106	199.938562445808	0.0499792397022247	24124
24.224	50	95	0	0	gun	727	95	0	stimuli\gun\gun_08n.jpg	7	-1	0	0	gun_08n.jpg	0	0.0	0	199.98858313308997	200.038564566988	0.0499814338982105	24224
24.324	50	96	0	0	cracker	429	96	0	stimuli\cracker\cracker_11s.jpg	10	-1	0	0	cracker_11s.jpg	0	0.0	0	200.088584522717	200.13856741972302	0.0499828970059752	24324
24.424	50	97	0	0	scallion	1372	97	0	stimuli\scallion\scallion_02s.jpg	1	-1	0	0	scallion_02s.jpg	0	0.0	0	200.18858835054598	200.23856856534303	0.0499802147969604	24424
24.524	50	98	0	0	egg	546	98	0	stimuli\egg\egg_01b.jpg	0	-1	0	0	egg_01b.jpg	0	0.0	0	200.288591690827	200.338571418077	0.0499797272495925	24524
24.624	50	99	0	0	shredder	1437	99	0	stimuli\shredder\shredder_10s.jpg	9	-1	0	0	shredder_10s.jpg	0	0.0	0	200.388592592906	200.43857500189898	0.0499824089929461	24624
24.724	50	100	0	0	seatbelt	1399	100	0	stimuli\seatbelt\seatbelt_03s.jpg	2	-1	0	0	seatbelt_03s.jpg	0	0.0	0	200.488596176729	200.538578829728	0.0499826529994607	24724
24.824	50	101	0	0	rollerskate	1327	101	0	stimuli\rollerskate\rollerskate_10s.jpg	9	-1	0	0	rollerskate_10s.jpg	0	0.0	0	200.58860244276002	200.638578269165	0.0499758264049888	24824
24.924	50	102	0	0	blowfish	146	102	0	stimuli\blowfish\blowfish_12s.jpg	11	-1	0	0	blowfish_12s.jpg	0	0.0	0	200.688602125738	200.738582340535	0.0499802147969604	24924
25.024	50	103	0	0	puddle	1247	103	0	stimuli\puddle\puddle_03s.jpg	2	-1	0	0	puddle_03s.jpg	0	0.0	0	200.788606441114	200.838614206761	0.0500077656470239	25024
25.124	50	104	0	0	refrigerator	1300	104	0	stimuli\refrigerator\refrigerator_11s.jpg	10	-1	0	0	refrigerator_11s.jpg	0	0.0	0	200.88860612409198	200.938586582895	0.0499804588034749	25124
25.224	50	105	0	0	clarinet	350	105	0	stimuli\clarinet\clarinet_03s.jpg	2	-1	0	0	clarinet_03s.jpg	0	0.0	0	200.98861263413002	201.03859845641998	0.0499858222901821	25224
25.324	50	106	0	0	pacifier	1093	106	0	stimuli\pacifier\pacifier_10s.jpg	9	-1	0	0	pacifier_10s.jpg	0	0.0	0	201.088615486398	201.138594970107	0.0499794837087393	25324
25.424	50	107	0	0	solar_panel	1493	107	0	stimuli\solar_panel\solar_panel_09s.jpg	8	-1	0	0	solar_panel_09s.jpg	0	0.0	0	201.188616632484	201.238596115727	0.04997948324307799	25424
25.524	50	108	0	0	yogurt	1848	108	0	stimuli\yogurt\yogurt_08s.jpg	7	-1	0	0	yogurt_08s.jpg	0	0.0	0	201.28861850965802	201.33859970001498	0.0499811903573573	25524
25.624	50	109	0	0	chipmunk	334	109	0	stimuli\chipmunk\chipmunk_11s.jpg	10	-1	0	0	chipmunk_11s.jpg	0	0.0	0	201.388623313047	201.438602308743	0.0499789956957102	25624
25.724	50	110	0	0	loom	946	110	0	stimuli\loom\loom_12s.jpg	11	-1	0	0	loom_12s.jpg	0	0.0	0	201.488624458667	201.53860759921398	0.0499831405468285	25724
25.824	50	111	0	0	highchair	777	111	0	stimuli\highchair\highchair_01b.jpg	0	-1	0	0	highchair_01b.jpg	0	0.0	0	201.588624873199	201.638609232847	0.0499843596480787	25824
25.924	50	112	0	0	elbow	552	112	0	stimuli\elbow\elbow_04s.jpg	3	-1	0	0	elbow_04s.jpg	0	0.0	0	201.688627969474	201.73860842827702	0.0499804588034749	25924
26.024	50	113	0	0	rickshaw	1310	113	0	stimuli\rickshaw\rickshaw_12s.jpg	11	-1	0	0	rickshaw_12s.jpg	0	0.0	0	201.788631553762	201.838611524552	0.0499799707904458	26024
26.124	50	114	0	0	shark	1409	114	0	stimuli\shark\shark_10s.jpg	9	-1	0	0	shark_10s.jpg	0	0.0	0	201.88863830733996	201.938618034124	0.0499797267839313	26124
26.224	50	115	0	0	pelican	1140	115	0	stimuli\pelican\pelican_03s.jpg	2	-1	0	0	pelican_03s.jpg	0	0.0	0	201.98863945296	202.038620886859	0.0499814338982105	26224
26.324	50	116	0	0	crucifix	449	116	0	stimuli\crucifix\crucifix_04s.jpg	3	-1	0	0	crucifix_04s.jpg	0	0.0	0	202.088641818147	202.138621057384	0.0499792392365634	26324
26.424	50	117	0	0	seesaw	1402	117	0	stimuli\seesaw\seesaw_04s.jpg	3	-1	0	0	seesaw_04s.jpg	0	0.0	0	202.188641257118	202.23862244747602	0.0499811903573573	26424
26.524	50	118	0	0	gauze	664	118	0	stimuli\gauze\gauze_04s.jpg	3	-1	0	0	gauze_04s.jpg	0	0.0	0	202.288643622305	202.338625543751	0.0499819214455783	26524
26.624	50	119	0	0	tulip	1726	119	0	stimuli\tulip\tulip_03s.jpg	2	-1	0	0	tulip_03s.jpg	0	0.0	0	202.38865013187802	202.438627420925	0.0499772890470922	26624
26.724	50	120	0	0	string_cheese	1573	120	0	stimuli\string_cheese\string_cheese_04s.jpg	3	-1	0	0	string_cheese_04s.jpg	0	0.0	0	202.488637868315	202.538634906057	0.0499970377422869	26724
26.824	50	121	0	0	suspenders	1589	121	0	stimuli\suspenders\suspenders_03s.jpg	2	-1	0	0	suspenders_03s.jpg	0	0.0	0	202.58865754352902	202.63863629568402	0.0499787521548569	26824
26.924	50	122	0	0	beet	114	122	0	stimuli\beet\beet_08s.jpg	7	-1	0	0	beet_08s.jpg	0	0.0	0	202.688658202067	202.73862671386502	0.0499685117974877	26924
27.024	50	123	0	0	dagger	469	123	0	stimuli\dagger\dagger_10s.jpg	9	-1	0	0	dagger_10s.jpg	0	0.0	0	202.788658616599	202.83864370733502	0.0499850907362998	27024
27.124	50	124	0	0	torch	1683	124	0	stimuli\torch\torch_12s.jpg	11	-1	0	0	torch_12s.jpg	0	0.0	0	202.88866146886699	202.93864144012298	0.0499799712561071	27124
27.224	50	125	0	0	worm	1836	125	0	stimuli\worm\worm_11s.jpg	10	-1	0	0	worm_11s.jpg	0	0.0	0	202.98867480549998	203.038644780405	0.0499699749052525	27224
27.324	50	126	0	0	thermostat	1648	126	0	stimuli\thermostat\thermostat_12s.jpg	11	-1	0	0	thermostat_12s.jpg	0	0.0	0	203.088671562728	203.138650314882	0.0499787521548569	27324
27.424	50	127	0	0	fruitcake	646	127	0	stimuli\fruitcake\fruitcake_01b.jpg	0	-1	0	0	fruitcake_01b.jpg	0	0.0	0	203.18867270881302	203.238653654698	0.0499809458851814	27424
27.524	50	128	0	0	icemaker	821	128	0	stimuli\icemaker\icemaker_10s.jpg	9	-1	0	0	icemaker_10s.jpg	0	0.0	0	203.288678486831	203.33865675143903	0.0499782646074891	27524
27.624	50	129	0	0	eggbeater	548	129	0	stimuli\eggbeater\eggbeater_11s.jpg	10	-1	0	0	eggbeater_11s.jpg	0	0.0	0	203.388674268965	203.43865424022098	0.0499799712561071	27624
27.724	50	130	0	0	blackberry	135	130	0	stimuli\blackberry\blackberry_03s.jpg	2	-1	0	0	blackberry_03s.jpg	0	0.0	0	203.488677609246	203.53866148134702	0.0499838721007109	27724
27.824	50	131	0	0	crank	432	131	0	stimuli\crank\crank_02s.jpg	1	-1	0	0	crank_02s.jpg	0	0.0	0	203.588680949528	203.63866140786598	0.0499804583378136	27824
27.924	50	132	0	0	phone	1161	132	0	stimuli\phone\phone_01b.jpg	0	-1	0	0	phone_01b.jpg	0	0.0	0	203.68868550844502	203.738665723708	0.0499802152626216	27924
28.024	50	133	0	0	slot_machine	1470	133	0	stimuli\slot_machine\slot_machine_09s.jpg	8	-1	0	0	slot_machine_09s.jpg	0	0.0	0	203.78868641052398	203.83866565022598	0.0499792397022247	28024
28.124	50	134	0	0	frog	644	134	0	stimuli\frog\frog_10s.jpg	9	-1	0	0	frog_10s.jpg	0	0.0	0	203.888686093967	203.938670209609	0.0499841156415641	28124
28.224	50	135	0	0	crayon	435	135	0	stimuli\crayon\crayon_10s.jpg	9	-1	0	0	crayon_10s.jpg	0	0.0	0	203.98869162844503	204.03866964904597	0.0499780206009746	28224
28.324	50	136	0	0	rust	1342	136	0	stimuli\rust\rust_12s.jpg	11	-1	0	0	rust_12s.jpg	0	0.0	0	204.088696674909	204.138676158618	0.0499794837087393	28324
28.424	50	137	0	0	moss	1022	137	0	stimuli\moss\moss_12s.jpg	11	-1	0	0	moss_12s.jpg	0	0.0	0	204.188697089441	204.238682912197	0.0499858227558434	28424
28.524	50	138	0	0	hula_hoop	810	138	0	stimuli\hula_hoop\hula_hoop_12s.jpg	11	-1	0	0	hula_hoop_12s.jpg	0	0.0	0	204.28870018618198	204.33868064452	0.0499804583378136	28524
28.624	50	139	0	0	roadsweeper	1316	139	0	stimuli\roadsweeper\roadsweeper_07s.jpg	6	-1	0	0	roadsweeper_07s.jpg	0	0.0	0	204.388699137606	204.438682278153	0.0499831405468285	28624
28.724	50	140	0	0	lobster	939	140	0	stimuli\lobster\lobster_08s.jpg	7	-1	0	1	lobster_08s.jpg	0	0.0	0	204.48871564352902	204.538683424238	0.0499677807092667	28724
28.824	50	141	0	0	cello	292	141	0	stimuli\cello\cello_03s.jpg	2	-1	0	0	cello_03s.jpg	0	0.0	0	204.588705330156	204.638687008061	0.0499816779047251	28824
28.924	50	142	0	0	easel	542	142	0	stimuli\easel\easel_11s.jpg	10	-1	0	0	easel_11s.jpg	0	0.0	0	204.688709401991	204.738693517633	0.0499841156415641	28924
29.024	50	143	0	0	yarn	1846	143	0	stimuli\yarn\yarn_01b.jpg	0	-1	0	0	yarn_01b.jpg	0	0.0	0	204.788715668023	204.838693444617	0.049977776594460004	29024
29.124	50	144	0	0	donut	505	144	0	stimuli\donut\donut_04s.jpg	3	-1	0	0	donut_04s.jpg	0	0.0	0	204.88871852029098	204.938695321791	0.0499768014997244	29124
29.224	50	145	0	0	spur	1525	145	0	stimuli\spur\spur_06s.jpg	5	-1	0	0	spur_06s.jpg	1	0.49214506754651705	1	204.988719909918	205.038699881174	0.0499799712561071	29224
29.324	50	146	0	0	wire	1828	146	0	stimuli\wire\wire_07s.jpg	6	-1	0	0	wire_07s.jpg	0	0.0	0	205.088720568456	205.138699320611	0.0499787521548569	29324
29.424	50	147	0	0	pan	1103	147	0	stimuli\pan\pan_11s.jpg	10	-1	0	0	pan_11s.jpg	0	0.0	0	205.188726590481	205.238704611082	0.0499780206009746	29424
29.524	50	148	0	0	ear	538	148	0	stimuli\ear\ear_03s.jpg	2	-1	0	0	ear_03s.jpg	0	0.0	0	205.28873090585702	205.33871160820098	0.0499807023443282	29524
29.624	50	149	0	0	squirrel	1529	149	0	stimuli\squirrel\squirrel_08n.jpg	7	-1	0	0	squirrel_08n.jpg	0	0.0	0	205.388729126193	205.438708365895	0.0499792397022247	29624
29.724	50	150	0	0	plate	1197	150	0	stimuli\plate\plate_01b.jpg	0	-1	0	0	plate_01b.jpg	0	0.0	0	205.488729784265	205.538713656366	0.0499838721007109	29724
29.824	50	151	0	0	knee	877	151	0	stimuli\knee\knee_02s.jpg	1	-1	0	0	knee_02s.jpg	0	0.0	0	205.588733124547	205.638714070898	0.0499809463508427	29824
29.924	50	152	0	0	plaster_cast	1195	152	0	stimuli\plaster_cast\plaster_cast_10s.jpg	9	-1	0	0	plaster_cast_10s.jpg	0	0.0	0	205.68873841548302	205.73871863028	0.0499802147969604	29924
30.024	50	153	0	0	ice-cream_cone	817	153	0	stimuli\ice-cream_cone\ice-cream_cone_10s.jpg	9	-1	0	0	ice-cream_cone_10s.jpg	0	0.0	0	205.788747119252	205.83872538385899	0.0499782646074891	30024
30.124	50	154	0	0	hammer	741	154	0	stimuli\hammer\hammer_08s.jpg	7	-1	0	0	hammer_08s.jpg	0	0.0	0	205.888742169831	205.938723116182	0.0499809463508427	30124
30.224	50	155	0	0	turtleneck	1737	155	0	stimuli\turtleneck\turtleneck_05s.jpg	4	-1	0	0	turtleneck_05s.jpg	0	0.0	0	205.988745754119	206.03872548136903	0.0499797272495925	30224
30.324	50	156	0	0	cassette	283	156	0	stimuli\cassette\cassette_07s.jpg	6	-1	0	0	cassette_07s.jpg	0	0.0	0	206.088747387286	206.138730040286	0.0499826529994607	30324
30.424	50	157	0	0	mustache	1043	157	0	stimuli\mustache\mustache_07s.jpg	6	-1	0	0	mustache_07s.jpg	0	0.0	0	206.18875121511502	206.238734843675	0.0499836285598576	30424
30.524	50	158	0	0	moccasin	1010	158	0	stimuli\moccasin\moccasin_06s.jpg	5	-1	0	0	moccasin_06s.jpg	0	0.0	0	206.2887582127	206.338736233301	0.0499780206009746	30524
30.624	50	159	0	0	brace	186	159	0	stimuli\brace\brace_05s.jpg	4	-1	0	0	brace_05s.jpg	0	0.0	0	206.388753750827	206.438735184725	0.0499814338982105	30624
30.724	50	160	0	0	stem	1547	160	0	stimuli\stem\stem_06s.jpg	5	-1	0	0	stem_06s.jpg	0	0.0	0	206.48875977285198	206.538738525007	0.0499787521548569	30724
30.824	50	161	0	0	batter	96	161	0	stimuli\batter\batter_02s.jpg	1	-1	0	0	batter_02s.jpg	0	0.0	0	206.588759212289	206.63874015864	0.0499809463508427	30824
30.924	50	162	0	0	burner	224	162	0	stimuli\burner\burner_08s.jpg	7	-1	0	0	burner_08s.jpg	0	0.0	0	206.68876401521302	206.738746668212	0.0499826529994607	30924
31.024	50	163	0	0	cheeseburger	313	163	0	stimuli\cheeseburger\cheeseburger_08s.jpg	7	-1	0	0	cheeseburger_08s.jpg	0	0.0	0	206.78876662393998	206.83874635119	0.0499797272495925	31024
31.125	50	164	0	0	rat	1285	164	0	stimuli\rat\rat_08s.jpg	7	-1	0	0	rat_08s.jpg	0	0.0	0	206.888776547275	206.938752129674	0.0499755823984742	31125
31.225	50	165	0	0	chili	327	165	0	stimuli\chili\chili_01b.jpg	0	-1	0	0	chili_01b.jpg	0	0.0	0	206.988776961342	207.03875571349602	0.0499787521548569	31225
31.325	50	166	0	0	tape	1622	166	0	stimuli\tape\tape_09s.jpg	8	-1	0	0	tape_09s.jpg	0	0.0	0	207.088772499934	207.138752958737	0.0499804588034749	31325
31.425	50	167	0	0	sea_urchin	1393	167	0	stimuli\sea_urchin\sea_urchin_01b.jpg	0	-1	0	0	sea_urchin_01b.jpg	0	0.0	0	207.188777302857	207.238764588255	0.0499872853979468	31425
31.525	50	168	0	0	wrap	1837	168	0	stimuli\wrap\wrap_05s.jpg	4	-1	0	0	wrap_05s.jpg	0	0.0	0	207.28878186224	207.33876134548302	0.04997948324307799	31525
31.625	50	169	0	0	poodle	1221	169	0	stimuli\poodle\poodle_06s.jpg	5	-1	0	0	poodle_06s.jpg	0	0.0	0	207.388782276772	207.43876224756198	0.0499799707904458	31625
31.725	50	170	0	0	birdcage	130	170	0	stimuli\birdcage\birdcage_05s.jpg	4	-1	0	0	birdcage_05s.jpg	0	0.0	0	207.488785616588	207.53876851359402	0.0499828970059752	31725
31.825	50	171	0	0	honey	788	171	0	stimuli\honey\honey_08s.jpg	7	-1	0	0	honey_08s.jpg	0	0.0	0	207.58879017597098	207.63876917166598	0.0499789956957102	31825
31.925	50	172	0	0	hippopotamus	781	172	0	stimuli\hippopotamus\hippopotamus_02s.jpg	1	-1	0	0	hippopotamus_02s.jpg	0	0.0	0	207.688791322056	207.73879542993402	0.0500041078776121	31925
32.025	50	173	0	0	pony	1220	173	0	stimuli\pony\pony_06s.jpg	5	-1	0	0	pony_06s.jpg	0	0.0	0	207.78879271168302	207.838775364682	0.0499826529994607	32025
32.125	50	174	0	0	magnifying_glass	958	174	0	stimuli\magnifying_glass\magnifying_glass_05s.jpg	4	-1	0	0	magnifying_glass_05s.jpg	0	0.0	0	207.888798490167	207.938779192511	0.0499807023443282	32125
32.225	50	175	0	0	origami	1083	175	0	stimuli\origami\origami_09s.jpg	8	-1	0	0	origami_09s.jpg	0	0.0	0	207.98879939224602	208.038783751894	0.0499843596480787	32225
32.325	50	176	0	0	dragonfly	514	176	0	stimuli\dragonfly\dragonfly_07s.jpg	6	-1	0	0	dragonfly_07s.jpg	0	0.0	0	208.08880882756802	208.13878124021	0.0499724126420915	32325
32.425	50	177	0	0	pear	1133	177	0	stimuli\pear\pear_05s.jpg	4	-1	0	0	pear_05s.jpg	0	0.0	0	208.188804853242	208.238784824498	0.0499799712561071	32425
32.525	50	178	0	0	anklet	23	178	0	stimuli\anklet\anklet_11s.jpg	10	-1	0	0	anklet_11s.jpg	0	0.0	0	208.288810631726	208.338790114969	0.04997948324307799	32525
32.625	50	179	0	0	tortellini	1686	179	0	stimuli\tortellini\tortellini_01b.jpg	0	-1	0	0	tortellini_01b.jpg	0	0.0	0	208.38881519110902	208.438791992608	0.0499768014997244	32625
32.725	50	180	0	0	snail	1476	180	0	stimuli\snail\snail_03n.jpg	2	-1	0	0	snail_03n.jpg	0	0.0	0	208.488818774931	208.53879362577598	0.0499748508445919	32725
32.825	50	181	0	0	cable	234	181	0	stimuli\cable\cable_06s.jpg	5	-1	0	0	cable_06s.jpg	0	0.0	0	208.58881675126	208.638795259409	0.0499785081483424	32825
32.925	50	182	0	0	seahorse	1396	182	0	stimuli\seahorse\seahorse_07s.jpg	6	-1	0	0	seahorse_07s.jpg	0	0.0	0	208.68881935998797	208.73879859968997	0.0499792397022247	32925
33.025	50	183	0	0	pajamas	1099	183	0	stimuli\pajamas\pajamas_10s.jpg	9	-1	0	0	pajamas_10s.jpg	0	0.0	0	208.788818555418	208.838799745776	0.0499811903573573	33025
33.125	50	184	0	0	staple	1537	184	0	stimuli\staple\staple_03s.jpg	2	-1	0	0	staple_03s.jpg	0	0.0	0	208.88882652809798	208.938804061152	0.0499775330536067	33125
33.225	50	185	0	0	veil	1755	185	0	stimuli\veil\veil_03s.jpg	2	-1	0	0	veil_03s.jpg	0	0.0	0	208.988826698624	209.038810570724	0.0499838721007109	33225
33.325	50	186	0	0	stroller	1574	186	0	stimuli\stroller\stroller_05s.jpg	4	-1	0	0	stroller_05s.jpg	0	0.0	0	209.08883052645302	209.13881317945203	0.0499826529994607	33325
33.425	50	187	0	0	rim	1312	187	0	stimuli\rim\rim_07s.jpg	6	-1	0	0	rim_07s.jpg	0	0.0	0	209.188838255126	209.238811399788	0.0499731446616352	33425
33.525	50	188	0	0	whip	1809	188	0	stimuli\whip\whip_05s.jpg	4	-1	0	0	whip_05s.jpg	0	0.0	0	209.288835743908	209.33881815336602	0.0499824094586074	33525
33.625	50	189	0	0	zipper	1852	189	0	stimuli\zipper\zipper_10s.jpg	9	-1	0	0	zipper_10s.jpg	0	0.0	0	209.38883932819598	209.43881832389198	0.0499789956957102	33625
33.725	50	190	0	0	fishbowl	601	190	0	stimuli\fishbowl\fishbowl_10s.jpg	9	-1	0	0	fishbowl_10s.jpg	0	0.0	0	209.488837792072	209.538822151721	0.0499843596480787	33725
33.825	50	191	0	0	lamb_chop	890	191	0	stimuli\lamb_chop\lamb_chop_02s.jpg	1	-1	0	0	lamb_chop_02s.jpg	0	0.0	0	209.5888462523	209.638825004455	0.0499787521548569	33825
33.925	50	192	0	0	chicken2	323	192	0	stimuli\chicken2\chicken2_06s.jpg	5	-1	0	0	chicken2_06s.jpg	0	0.0	0	209.688844960183	209.738824443426	0.04997948324307799	33925
34.025	50	193	0	0	lightning_bug	929	193	0	stimuli\lightning_bug\lightning_bug_08s.jpg	7	-1	0	0	lightning_bug_08s.jpg	0	0.0	0	209.788846837357	209.838828271255	0.0499814338982105	34025
34.125	50	194	0	0	air_pump	6	194	0	stimuli\air_pump\air_pump_07s.jpg	6	-1	0	0	air_pump_07s.jpg	0	0.0	0	209.888851152733	209.938831123989	0.0499799712561071	34125
34.225	50	195	0	0	snorkel	1478	195	0	stimuli\snorkel\snorkel_05s.jpg	4	-1	0	0	snorkel_05s.jpg	0	0.0	0	209.98885644367002	210.03883446427102	0.0499780206009746	34225
34.325	50	196	0	0	smoke_alarm	1473	196	0	stimuli\smoke_alarm\smoke_alarm_01b.jpg	0	-1	0	0	smoke_alarm_01b.jpg	0	0.0	0	210.08885710174198	210.138840242289	0.0499831405468285	34325
34.425	50	197	0	0	earplug	539	197	0	stimuli\earplug\earplug_05s.jpg	4	-1	0	0	earplug_05s.jpg	0	0.0	0	210.188857028726	210.23883748706402	0.0499804583378136	34425
34.525	50	198	0	0	motorcycle	1025	198	0	stimuli\motorcycle\motorcycle_08s.jpg	7	-1	0	0	motorcycle_08s.jpg	0	0.0	0	210.28886036900798	210.33884229045398	0.0499819214455783	34525
34.625	50	199	0	0	stomach	1560	199	0	stimuli\stomach\stomach_11s.jpg	10	-1	0	0	stomach_11s.jpg	0	0.0	0	210.388864440378	210.438842948526	0.0499785081483424	34625
34.725	50	200	0	0	clove	365	200	0	stimuli\clove\clove_08s.jpg	7	-1	0	0	clove_08s.jpg	0	0.0	0	210.48886680556498	210.538852383848	0.0499855782836676	34725
34.825	50	201	0	0	mullet	1039	201	0	stimuli\mullet\mullet_12s.jpg	11	-1	0	0	mullet_12s.jpg	0	0.0	0	210.588871364482	210.638852067292	0.0499807028099895	34825
34.925	50	202	0	0	bulletin_board	217	202	0	stimuli\bulletin_board\bulletin_board_12s.jpg	11	-1	0	0	bulletin_board_12s.jpg	0	0.0	0	210.688870316371	210.73885345691798	0.0499831405468285	34925
35.025	50	203	0	0	raisin	1280	203	0	stimuli\raisin\raisin_10s.jpg	9	-1	0	0	raisin_10s.jpg	0	0.0	0	210.788873900194	210.838855090551	0.0499811903573573	35025
35.125	50	204	0	0	flashlight	611	204	0	stimuli\flashlight\flashlight_10s.jpg	9	-1	0	0	flashlight_10s.jpg	0	0.0	0	210.88887528982	210.938856236171	0.0499809463508427	35125
35.225	50	205	0	0	ribbon	1308	205	0	stimuli\ribbon\ribbon_12s.jpg	11	-1	0	0	ribbon_12s.jpg	0	0.0	0	210.98888058075698	211.038858601358	0.0499780206009746	35225
35.325	50	206	0	0	waterwheel	1794	206	0	stimuli\waterwheel\waterwheel_04s.jpg	3	-1	0	0	waterwheel_04s.jpg	0	0.0	0	211.088880263735	211.138863160275	0.04998289654031401	35325
35.425	50	207	0	0	vacuum	1750	207	0	stimuli\vacuum\vacuum_05s.jpg	4	-1	0	0	vacuum_05s.jpg	0	0.0	0	211.188891649712	211.23886674456298	0.0499750948511064	35425
35.525	50	208	0	0	wrench	1841	208	0	stimuli\wrench\wrench_06s.jpg	5	-1	0	0	wrench_06s.jpg	0	0.0	0	211.288888650481	211.338866915088	0.0499782646074891	35525
35.625	50	209	0	0	toucan	1690	209	0	stimuli\toucan\toucan_04s.jpg	3	-1	0	0	toucan_04s.jpg	0	0.0	0	211.38889516051898	211.43887025536998	0.0499750948511064	35625
35.725	50	210	0	0	headlight	765	210	0	stimuli\headlight\headlight_07s.jpg	6	-1	0	0	headlight_07s.jpg	0	0.0	0	211.4888926493	211.538871644996	0.0499789956957102	35725
35.825	50	211	0	0	stool	1561	211	0	stimuli\stool\stool_09s.jpg	8	-1	0	0	stool_09s.jpg	0	0.0	0	211.58889696467702	211.63887815456798	0.049981189891696	35825
35.925	50	212	0	0	chin	330	212	0	stimuli\chin\chin_07s.jpg	6	-1	0	0	chin_07s.jpg	0	0.0	0	211.68889859831	211.738879788201	0.049981189891696	35925
36.025	50	213	0	0	pancake	1104	213	0	stimuli\pancake\pancake_07s.jpg	6	-1	0	0	pancake_07s.jpg	0	0.0	0	211.78890486387502	211.83888410357798	0.0499792397022247	36025
36.125	50	214	0	0	sweeper	1594	214	0	stimuli\sweeper\sweeper_03s.jpg	2	-1	0	0	sweeper_03s.jpg	0	0.0	0	211.888903328218	211.938885493204	0.0499821649864316	36125
36.225	50	215	0	0	ottoman	1086	215	0	stimuli\ottoman\ottoman_06s.jpg	5	-1	0	0	ottoman_06s.jpg	0	0.0	0	211.988906424493	212.038885664195	0.0499792397022247	36225
36.325	50	216	0	0	abacus	1	216	0	stimuli\abacus\abacus_12s.jpg	11	-1	0	0	abacus_12s.jpg	0	0.0	0	212.08890732657198	212.13889119867198	0.0499838721007109	36325
36.425	50	217	0	0	porcupine	1226	217	0	stimuli\porcupine\porcupine_08s.jpg	7	-1	0	0	porcupine_08s.jpg	0	0.0	0	212.188913348597	212.238896245137	0.04998289654031401	36425
36.525	50	218	0	0	gauge	663	218	0	stimuli\gauge\gauge_10s.jpg	9	-1	0	0	gauge_10s.jpg	0	0.0	0	212.28891351912202	212.338896172121	0.0499826529994607	36525
36.625	50	219	0	0	microwave	1000	219	0	stimuli\microwave\microwave_11s.jpg	10	-1	0	0	microwave_11s.jpg	0	0.0	0	212.388915152755	212.438898049761	0.0499828970059752	36625
36.725	50	220	0	0	artichoke	39	220	0	stimuli\artichoke\artichoke_09s.jpg	8	-1	0	0	artichoke_09s.jpg	0	0.0	0	212.488918493036	212.53890041448201	0.0499819214455783	36725
36.825	50	221	0	0	butterfly	229	221	0	stimuli\butterfly\butterfly_06s.jpg	5	-1	0	0	butterfly_06s.jpg	0	0.0	0	212.58892232086498	212.638903267216	0.0499809463508427	36825
36.925	50	222	0	0	hamster	743	222	0	stimuli\hamster\hamster_03s.jpg	2	-1	0	0	hamster_03s.jpg	0	0.0	0	212.688925173134	212.73890782613302	0.0499826529994607	36925
37.025	50	223	0	0	football	629	223	0	stimuli\football\football_04s.jpg	3	-1	0	0	football_04s.jpg	0	0.0	0	212.788931439165	212.838909216225	0.0499777770601213	37025
37.125	50	224	0	0	dishrag	490	224	0	stimuli\dishrag\dishrag_03s.jpg	2	-1	0	0	dishrag_03s.jpg	0	0.0	0	212.88893599854802	212.938912068494	0.049976069945842	37125
37.225	50	225	0	0	belt	118	225	0	stimuli\belt\belt_11s.jpg	10	-1	0	0	belt_11s.jpg	0	0.0	0	212.988939826377	213.038917115424	0.0499772890470922	37225
37.325	50	226	0	0	diskette	493	226	0	stimuli\diskette\diskette_07s.jpg	6	-1	0	0	diskette_07s.jpg	0	0.0	0	213.088936340064	213.138915091753	0.0499787516891956	37325
37.425	50	227	0	0	trumpet	1721	227	0	stimuli\trumpet\trumpet_01s.jpg	0	-1	0	0	trumpet_01s.jpg	0	0.0	0	213.18894382473098	213.23891940712898	0.0499755823984742	37425
37.525	50	228	0	0	water_bottle	1787	228	0	stimuli\water_bottle\water_bottle_12s.jpg	11	-1	0	0	water_bottle_12s.jpg	0	0.0	0	213.288941557519	213.338921284769	0.0499797272495925	37525
37.625	50	229	0	0	bow2	175	229	0	stimuli\bow2\bow2_01s.jpg	0	-1	0	0	bow2_01s.jpg	0	0.0	0	213.38895123638198	213.438937302679	0.0499860662966967	37625
37.725	50	230	0	0	souffle	1498	230	0	stimuli\souffle\souffle_03s.jpg	2	-1	0	0	souffle_03s.jpg	0	0.0	0	213.488949456718	213.538933816366	0.0499843596480787	37725
37.825	50	231	0	0	memory_stick	995	231	0	stimuli\memory_stick\memory_stick_09s.jpg	8	-1	0	0	memory_stick_09s.jpg	0	0.0	0	213.58894938370202	213.638935937546	0.0499865538440645	37825
37.925	50	232	0	0	blinder	141	232	0	stimuli\blinder\blinder_04s.jpg	3	-1	0	0	blinder_04s.jpg	0	0.0	0	213.688956624828	213.738934645429	0.0499780206009746	37925
38.025	50	233	0	0	stir_fry	1557	233	0	stimuli\stir_fry\stir_fry_12s.jpg	11	-1	0	0	stir_fry_12s.jpg	0	0.0	0	213.78895582025902	213.83893701015	0.049981189891696	38025
38.125	50	234	0	0	overalls	1090	234	0	stimuli\overalls\overalls_01s.jpg	0	-1	0	0	overalls_01s.jpg	0	0.0	0	213.88895623479	213.93894181354	0.0499855787493289	38125
38.225	50	235	0	0	straw1	1568	235	0	stimuli\straw1\straw1_05s.jpg	4	-1	0	0	straw1_05s.jpg	0	0.0	0	213.98896347591702	214.038941496518	0.0499780206009746	38225
38.325	50	236	0	0	candy_cane	257	236	0	stimuli\candy_cane\candy_cane_04s.jpg	3	-1	0	0	candy_cane_04s.jpg	0	0.0	0	214.08896120823897	214.138944348786	0.0499831405468285	38325
38.425	50	237	0	0	canoe	262	237	0	stimuli\canoe\canoe_09s.jpg	8	-1	0	0	canoe_09s.jpg	0	0.0	0	214.188967718277	214.23894720152	0.04997948324307799	38425
38.525	50	238	0	0	sand	1351	238	0	stimuli\sand\sand_07s.jpg	6	-1	0	0	sand_07s.jpg	0	0.0	0	214.288967888802	214.33895127335603	0.0499833845533431	38525
38.625	50	239	0	0	margarita	973	239	0	stimuli\margarita\margarita_01b.jpg	0	-1	0	0	margarita_01b.jpg	0	0.0	0	214.388978055678	214.438937546685	0.04995949100703	38625
38.725	50	240	0	0	patch	1125	240	0	stimuli\patch\patch_10s.jpg	9	-1	0	0	patch_10s.jpg	0	0.0	0	214.488973593805	214.53895551525102	0.0499819214455783	38725
38.825	50	241	0	0	chocolate	338	241	0	stimuli\chocolate\chocolate_07s.jpg	6	-1	0	0	chocolate_07s.jpg	0	0.0	0	214.58897400833698	214.638957148883	0.0499831405468285	38825
38.925	50	242	0	0	tricycle	1711	242	0	stimuli\tricycle\tricycle_06s.jpg	5	-1	0	0	tricycle_06s.jpg	0	0.0	0	214.68898563832002	214.73896146426003	0.0499758259393275	38925
39.025	50	243	0	0	orangutan	1080	243	0	stimuli\orangutan\orangutan_10s.jpg	9	-1	0	0	orangutan_10s.jpg	0	0.0	0	214.78898361465	214.838963341899	0.0499797272495925	39025
39.125	50	244	0	0	projector	1242	244	0	stimuli\projector\projector_02s.jpg	1	-1	0	0	projector_02s.jpg	0	0.0	0	214.888985004276	214.938979603816	0.0499945995397866	39125
39.225	50	245	0	0	keg	866	245	0	stimuli\keg\keg_04s.jpg	3	-1	0	0	keg_04s.jpg	0	0.0	0	214.98898639390202	215.038969778456	0.0499833845533431	39225
39.325	50	246	0	0	crate	433	246	0	stimuli\crate\crate_03s.jpg	2	-1	0	0	crate_03s.jpg	0	0.0	0	215.088994610123	215.138971168082	0.0499765579588711	39325
39.425	50	247	0	0	telescope	1640	247	0	stimuli\telescope\telescope_12s.jpg	11	-1	0	0	telescope_12s.jpg	0	0.0	0	215.188995024655	215.23897475190498	0.0499797272495925	39425
39.525	50	248	0	0	steering_wheel	1546	248	0	stimuli\steering_wheel\steering_wheel_11s.jpg	10	-1	0	0	steering_wheel_11s.jpg	0	0.0	0	215.288996658288	215.338978092186	0.0499814338982105	39525
39.625	50	249	0	0	watering_can	1792	249	0	stimuli\watering_can\watering_can_12s.jpg	11	-1	0	0	watering_can_12s.jpg	0	0.0	0	215.38899731636002	215.43898240756198	0.04998509120196099	39625
39.725	50	250	0	0	shears	1412	250	0	stimuli\shears\shears_12s.jpg	11	-1	0	0	shears_12s.jpg	0	0.0	0	215.489001388196	215.538982578088	0.049981189891696	39725
39.825	50	251	0	0	corkscrew	411	251	0	stimuli\corkscrew\corkscrew_12s.jpg	11	-1	0	0	corkscrew_12s.jpg	0	0.0	0	215.58900521602501	215.63898323662602	0.0499780206009746	39825
39.925	50	252	0	0	sled	1460	252	0	stimuli\sled\sled_08s.jpg	7	-1	0	0	sled_08s.jpg	0	0.0	0	215.68900563055598	215.73898730799598	0.0499816774390638	39925
40.025	50	253	0	0	fox	638	253	0	stimuli\fox\fox_11s.jpg	10	-1	0	0	fox_11s.jpg	0	0.0	0	215.789008483291	215.83899528067602	0.0499867973849177	40025
40.125	50	254	0	0	train_set	1700	254	0	stimuli\train_set\train_set_11s.jpg	10	-1	0	0	train_set_11s.jpg	0	0.0	0	215.889011579566	215.93899155035598	0.0499799707904458	40125
40.225	50	255	0	0	scanner	1375	255	0	stimuli\scanner\scanner_08s.jpg	7	-1	0	0	scanner_08s.jpg	0	0.0	0	215.989017601591	216.038996597286	0.0499789956957102	40225
40.325	50	256	0	0	wine_cooler	1825	256	0	stimuli\wine_cooler\wine_cooler_05s.jpg	4	-1	0	0	wine_cooler_05s.jpg	0	0.0	0	216.08901825966302	216.13899969356098	0.0499814338982105	40325
40.425	50	257	0	0	headlamp	764	257	0	stimuli\headlamp\headlamp_02s.jpg	1	-1	0	0	headlamp_02s.jpg	0	0.0	0	216.189021599945	216.23900059564	0.0499789956957102	40425
40.525	50	258	0	0	laptop	897	258	0	stimuli\laptop\laptop_07s.jpg	6	-1	0	0	laptop_07s.jpg	0	0.0	0	216.28902177047001	216.339001254179	0.0499794837087393	40525
40.625	50	259	0	0	nightstand	1059	259	0	stimuli\nightstand\nightstand_09s.jpg	8	-1	0	0	nightstand_09s.jpg	0	0.0	0	216.389025354758	216.439005569555	0.0499802147969604	40625
40.725	50	260	0	0	life_jacket	924	260	0	stimuli\life_jacket\life_jacket_01b.jpg	0	-1	0	0	life_jacket_01b.jpg	0	0.0	0	216.489030645229	216.539022075478	0.0499914302490652	40725
40.825	50	261	0	0	camera2	247	261	0	stimuli\camera2\camera2_11s.jpg	10	-1	0	0	camera2_11s.jpg	0	0.0	0	216.589032766409	216.639009080362	0.0499763139523566	40825
40.925	50	262	0	0	doorbell	507	262	0	stimuli\doorbell\doorbell_11s.jpg	10	-1	0	0	doorbell_11s.jpg	0	0.0	0	216.689034644049	216.73901583393996	0.049981189891696	40925
41.025	50	263	0	0	cup	460	263	0	stimuli\cup\cup_05s.jpg	4	-1	0	0	cup_05s.jpg	0	0.0	0	216.78903530212102	216.839017955121	0.0499826529994607	41025
41.125	50	264	0	0	birdhouse	131	264	0	stimuli\birdhouse\birdhouse_11s.jpg	10	-1	0	0	birdhouse_11s.jpg	0	0.0	0	216.889042299241	216.939021538943	0.0499792397022247	41125
41.225	50	265	0	0	gong	692	265	0	stimuli\gong\gong_06s.jpg	5	-1	0	0	gong_06s.jpg	0	0.0	0	216.98904149467097	217.039024879225	0.0499833845533431	41225
41.325	50	266	0	0	avocado	43	266	0	stimuli\avocado\avocado_12s.jpg	11	-1	0	0	avocado_12s.jpg	0	0.0	0	217.089049954899	217.139026268851	0.0499763139523566	41325
41.425	50	267	0	0	plunger	1204	267	0	stimuli\plunger\plunger_11s.jpg	10	-1	0	0	plunger_11s.jpg	0	0.0	0	217.18904963787602	217.23902863403802	0.0499789961613715	41425
41.525	50	268	0	0	pearl	1134	268	0	stimuli\pearl\pearl_07s.jpg	6	-1	0	0	pearl_07s.jpg	0	0.0	0	217.28904834576	217.339031974319	0.0499836285598576	41525
41.625	50	269	0	0	dalmatian	471	269	0	stimuli\dalmatian\dalmatian_02s.jpg	1	-1	0	0	dalmatian_02s.jpg	0	0.0	0	217.389055099338	217.43903238838502	0.0499772890470922	41625
41.725	50	270	0	0	pocket	1205	270	0	stimuli\pocket\pocket_03s.jpg	2	-1	0	0	pocket_03s.jpg	0	0.0	0	217.48905453877498	217.539035485126	0.0499809463508427	41725
41.825	50	271	0	0	windshield_wiper	1821	271	0	stimuli\windshield_wiper\windshield_wiper_07s.jpg	6	-1	0	0	windshield_wiper_07s.jpg	0	0.0	0	217.589059585705	217.639040044043	0.0499804583378136	41825
41.925	50	272	0	0	aloe	14	272	0	stimuli\aloe\aloe_04s.jpg	3	-1	0	0	aloe_04s.jpg	0	0.0	0	217.689063657075	217.739043628331	0.0499799712561071	41925
42.025	50	273	0	0	blower	145	273	0	stimuli\blower\blower_12s.jpg	11	-1	0	0	blower_12s.jpg	0	0.0	0	217.789062364958	217.839044286404	0.0499819214455783	42025
42.125	50	274	0	0	skateboard	1449	274	0	stimuli\skateboard\skateboard_03s.jpg	2	-1	0	0	skateboard_03s.jpg	0	0.0	0	217.88906619278703	217.93904860178	0.0499824089929461	42125
42.225	50	275	0	0	ready_meal	1292	275	0	stimuli\ready_meal\ready_meal_08s.jpg	7	-1	0	0	ready_meal_08s.jpg	0	0.0	0	217.989074653015	218.039051698521	0.0499770455062389	42225
42.325	50	276	0	0	bench	120	276	0	stimuli\bench\bench_06s.jpg	5	-1	0	0	bench_06s.jpg	0	0.0	0	218.08907238533698	218.139053331688	0.0499809463508427	42325
42.425	50	277	0	0	cymbal	468	277	0	stimuli\cymbal\cymbal_10s.jpg	9	-1	0	0	cymbal_10s.jpg	0	0.0	0	218.189076701179	218.23905764706402	0.0499809458851814	42425
42.525	50	278	0	0	blender	138	278	0	stimuli\blender\blender_12s.jpg	11	-1	0	0	blender_12s.jpg	0	0.0	0	218.28907833434602	218.33905854914298	0.0499802147969604	42525
42.625	50	279	0	0	banana_peel	64	279	0	stimuli\banana_peel\banana_peel_08s.jpg	7	-1	0	0	banana_peel_08s.jpg	0	0.0	0	218.38907826133098	218.439059207682	0.0499809463508427	42625
42.725	50	280	0	0	girl	676	280	0	stimuli\girl\girl_03s.jpg	2	-1	0	0	girl_03s.jpg	0	0.0	0	218.489080870058	218.53906425461201	0.0499833845533431	42725
42.825	50	281	0	0	suit	1580	281	0	stimuli\suit\suit_06s.jpg	5	-1	0	0	suit_06s.jpg	0	0.0	0	218.589084941894	218.63906710688	0.0499821649864316	42825
42.925	50	282	0	0	navel	1052	282	0	stimuli\navel\navel_05s.jpg	4	-1	0	0	navel_05s.jpg	0	0.0	0	218.68909510876998	218.73906727787102	0.0499721691012383	42925
43.025	50	283	0	0	dip	487	283	0	stimuli\dip\dip_10s.jpg	9	-1	0	0	dip_10s.jpg	0	0.0	0	218.789079187904	218.839061109349	0.0499819214455783	43025
43.125	50	284	0	0	face_mask	570	284	0	stimuli\face_mask\face_mask_03s.jpg	2	-1	0	0	face_mask_03s.jpg	0	0.0	0	218.889069850091	218.939051283989	0.0499814338982105	43125
43.225	50	285	0	0	scaffolding	1370	285	0	stimuli\scaffolding\scaffolding_03n.jpg	2	-1	0	0	scaffolding_03n.jpg	0	0.0	0	218.989074165467	219.039052429609	0.0499782641418278	43225
43.325	50	286	0	0	melon	994	286	0	stimuli\melon\melon_11s.jpg	10	-1	0	0	melon_11s.jpg	0	0.0	0	219.089082137682	219.139055525884	0.0499733882024884	43325
43.425	50	287	0	0	credit_card	438	287	0	stimuli\credit_card\credit_card_05s.jpg	4	-1	0	0	credit_card_05s.jpg	0	0.0	0	219.18907913891601	219.23906154837502	0.0499824094586074	43425
43.525	50	288	0	0	t-shirt	1606	288	0	stimuli\t-shirt\t-shirt_05s.jpg	4	-1	0	0	t-shirt_05s.jpg	0	0.0	0	219.28908052854197	219.339061231352	0.0499807028099895	43525
43.625	50	289	0	0	caramel	270	289	0	stimuli\caramel\caramel_04s.jpg	3	-1	0	0	caramel_04s.jpg	0	0.0	0	219.389085087925	219.439070422668	0.0499853347428143	43625
43.725	50	290	0	0	snowboard	1481	290	0	stimuli\snowboard\snowboard_11s.jpg	10	-1	0	0	snowboard_11s.jpg	0	0.0	0	219.489097205456	219.53906766790902	0.0499704624526203	43725
43.825	50	291	0	0	piecrust	1169	291	0	stimuli\piecrust\piecrust_02s.jpg	1	-1	0	0	piecrust_02s.jpg	0	0.0	0	219.58909006183998	219.639069301542	0.0499792397022247	43825
43.925	50	292	0	0	pine_needle	1180	292	0	stimuli\pine_needle\pine_needle_11s.jpg	10	-1	0	0	pine_needle_11s.jpg	0	0.0	0	219.68909291410802	219.73907410446603	0.0499811903573573	43925
44.025	50	293	0	0	mannequin	968	293	0	stimuli\mannequin\mannequin_06s.jpg	5	-1	0	0	mannequin_06s.jpg	0	0.0	0	219.78909430419998	219.839074274991	0.0499799707904458	44025
44.125	50	294	0	0	doghouse	497	294	0	stimuli\doghouse\doghouse_10s.jpg	9	-1	0	0	doghouse_10s.jpg	0	0.0	0	219.889096912928	219.93907810282002	0.049981189891696	44125
44.225	50	295	0	0	thumbtack	1654	295	0	stimuli\thumbtack\thumbtack_09s.jpg	8	-1	0	0	thumbtack_09s.jpg	0	0.0	0	219.98910098429798	220.039080955554	0.0499799712561071	44225
44.325	50	296	0	0	ironing_board	833	296	0	stimuli\ironing_board\ironing_board_05s.jpg	4	-1	0	0	ironing_board_05s.jpg	0	0.0	0	220.089102130383	220.139084051829	0.0499819214455783	44325
44.425	50	297	0	0	comb	389	297	0	stimuli\comb\comb_05s.jpg	4	-1	0	0	comb_05s.jpg	0	0.0	0	220.18910571420602	220.239085685462	0.0499799712561071	44425
44.525	50	298	0	0	brass_knuckles	193	298	0	stimuli\brass_knuckles\brass_knuckles_05s.jpg	4	-1	0	0	brass_knuckles_05s.jpg	0	0.0	0	220.289109054487	220.339088781737	0.0499797272495925	44525
44.625	50	299	0	0	wedding_cake	1800	299	0	stimuli\wedding_cake\wedding_cake_10s.jpg	9	-1	0	0	wedding_cake_10s.jpg	0	0.0	0	220.389108493924	220.43909334112004	0.0499848471954465	44625
44.725	50	300	0	0	salami	1349	300	0	stimuli\salami\salami_04s.jpg	3	-1	0	0	salami_04s.jpg	0	0.0	0	220.489114271943	220.539095218293	0.0499809463508427	44725
44.825	50	301	0	0	knob	882	301	0	stimuli\knob\knob_03s.jpg	2	-1	0	0	knob_03s.jpg	0	0.0	0	220.589114442468	220.63909636437901	0.0499819219112396	44825
44.925	50	302	0	0	gumball	725	302	0	stimuli\gumball\gumball_03s.jpg	2	-1	0	0	gumball_03s.jpg	0	0.0	0	220.68911753920798	220.73910165485	0.0499841156415641	44925
45.025	50	303	0	0	ketchup	867	303	0	stimuli\ketchup\ketchup_09s.jpg	8	-1	0	0	ketchup_09s.jpg	0	0.0	0	220.78912429278702	220.83912766911098	0.0500033763237298	45025
45.125	50	304	0	0	javelin	841	304	0	stimuli\javelin\javelin_10s.jpg	9	-1	0	0	javelin_10s.jpg	0	0.0	0	220.889127145056	220.939106140751	0.0499789956957102	45125
45.225	50	305	0	0	magnet	956	305	0	stimuli\magnet\magnet_01b.jpg	0	-1	0	0	magnet_01b.jpg	1	0.0	0	220.989125608932	221.039108505938	0.0499828970059752	45225
45.325	50	306	0	0	unicycle	1746	306	0	stimuli\unicycle\unicycle_05s.jpg	4	-1	0	0	unicycle_05s.jpg	0	0.0	0	221.08914089622002	221.13911135867198	0.0499704624526203	45325
45.425	50	307	0	0	bedpost	110	307	0	stimuli\bedpost\bedpost_11s.jpg	10	-1	0	0	bedpost_11s.jpg	0	0.0	0	221.189133508597	221.239113723394	0.0499802147969604	45425
45.525	50	308	0	0	scissors	1379	308	0	stimuli\scissors\scissors_12s.jpg	11	-1	0	0	scissors_12s.jpg	0	0.0	0	221.28913709241903	221.33911584457402	0.0499787521548569	45525
57.275	50	309	0	0	ruby	1338	0	1	stimuli\ruby\ruby_04s.jpg	3	-1	1	0	ruby_04s.jpg	0	0.0	0	233.039477877319	233.089453947265	0.049976069945842	57275
57.375	50	310	0	0	roll	1323	1	1	stimuli\roll\roll_06s.jpg	5	-1	1	0	roll_06s.jpg	0	0.0	0	233.139481948689	233.189466064796	0.0499841161072254	57375
57.475	50	311	0	0	broccoli	201	2	1	stimuli\broccoli\broccoli_04s.jpg	3	-1	1	0	broccoli_04s.jpg	0	0.0	0	233.239481388126	233.28946209047	0.0499807023443282	57475
57.575	50	312	0	0	bikini	124	3	1	stimuli\bikini\bikini_02s.jpg	1	-1	1	0	bikini_02s.jpg	0	0.0	0	233.33948131511002	233.389464699198	0.0499833840876818	57575
57.675	50	313	0	0	icicle	824	4	1	stimuli\icicle\icicle_07s.jpg	6	-1	1	0	icicle_07s.jpg	0	0.0	0	233.439484898932	233.489464138635	0.0499792397022247	57675
57.775	50	314	0	0	soda_fountain	1491	5	1	stimuli\soda_fountain\soda_fountain_10s.jpg	9	-1	1	0	soda_fountain_10s.jpg	0	0.0	0	233.53948897076802	233.58947016065898	0.049981189891696	57775
57.875	50	315	0	0	gopher	694	6	1	stimuli\gopher\gopher_03s.jpg	2	-1	1	0	gopher_03s.jpg	0	0.0	0	233.639493042137	233.689474720042	0.0499816779047251	57875
57.975	50	316	0	0	buoy	223	7	1	stimuli\buoy\buoy_10s.jpg	9	-1	1	0	buoy_10s.jpg	0	0.0	0	233.739492969122	233.789472940378	0.0499799712561071	57975
58.075	50	317	0	0	doorknob	509	8	1	stimuli\doorknob\doorknob_08s.jpg	7	-1	1	0	doorknob_08s.jpg	0	0.0	0	233.83949460275502	233.889482619241	0.0499880164861679	58075
58.175	50	318	0	0	compass	392	9	1	stimuli\compass\compass_02s.jpg	1	-1	1	0	compass_02s.jpg	0	0.0	0	233.939497455023	233.989475719631	0.0499782646074891	58175
58.275	50	319	0	0	stingray	1556	10	1	stimuli\stingray\stingray_10s.jpg	9	-1	1	0	stingray_10s.jpg	0	0.0	0	234.03947909642002	234.089460530318	0.0499814338982105	58275
58.375	50	320	0	0	water_fountain	1790	11	1	stimuli\water_fountain\water_fountain_01b.jpg	0	-1	1	0	water_fountain_01b.jpg	0	0.0	0	234.139508036431	234.18948947032902	0.0499814338982105	58375
58.475	50	321	0	0	leotard	918	12	1	stimuli\leotard\leotard_11s.jpg	10	-1	1	0	leotard_11s.jpg	0	0.0	0	234.23951186426004	234.289493054617	0.0499811903573573	58475
58.575	50	322	0	0	catfish	287	13	1	stimuli\catfish\catfish_06s.jpg	5	-1	1	0	catfish_06s.jpg	0	0.0	0	234.339513010345	234.38949834508801	0.0499853347428143	58575
58.675	50	323	0	0	torso	1685	14	1	stimuli\torso\torso_04s.jpg	3	-1	1	0	torso_04s.jpg	0	0.0	0	234.43951635062697	234.48947998601898	0.049963635392487	58675
58.775	50	324	0	0	coconut	375	15	1	stimuli\coconut\coconut_09s.jpg	8	-1	1	0	coconut_09s.jpg	0	0.0	0	234.539516764693	234.589483326301	0.0499665616080165	58775
58.875	50	325	0	0	straw2	1569	16	1	stimuli\straw2\straw2_10s.jpg	9	-1	1	0	straw2_10s.jpg	0	0.0	0	234.639503770042	234.68950275797403	0.0499989879317582	58875
58.975	50	326	0	0	loveseat	947	17	1	stimuli\loveseat\loveseat_06s.jpg	5	-1	1	0	loveseat_06s.jpg	0	0.0	0	234.739507353865	234.789488056209	0.0499807023443282	58975
59.075	50	327	0	0	doormat	511	18	1	stimuli\doormat\doormat_03s.jpg	2	-1	1	0	doormat_03s.jpg	0	0.0	0	234.83952385978802	234.88950700033502	0.0499831405468285	59075
59.175	50	328	0	0	boat	154	19	1	stimuli\boat\boat_12s.jpg	11	-1	1	0	boat_12s.jpg	0	0.0	0	234.939512815326	234.989493030123	0.0499802147969604	59175
59.275	50	329	0	0	leash	907	20	1	stimuli\leash\leash_10s.jpg	9	-1	1	0	leash_10s.jpg	0	0.0	0	235.039529808797	235.08949637040502	0.0499665616080165	59275
59.375	50	330	0	0	payphone	1127	21	1	stimuli\payphone\payphone_09s.jpg	8	-1	1	0	payphone_09s.jpg	0	0.0	0	235.13953656237598	235.18953408766498	0.0499975252896547	59375
59.475	50	331	0	0	briefcase	200	22	1	stimuli\briefcase\briefcase_04s.jpg	3	-1	1	0	briefcase_04s.jpg	0	0.0	0	235.239533319604	235.289515972603	0.0499826529994607	59475
59.575	50	332	0	0	beanbag	103	23	1	stimuli\beanbag\beanbag_02s.jpg	1	-1	1	0	beanbag_02s.jpg	0	0.0	0	235.33954129228403	235.389518093783	0.0499768014997244	59575
59.675	50	333	0	0	roulette_wheel	1335	24	1	stimuli\roulette_wheel\roulette_wheel_01b.jpg	0	-1	1	0	roulette_wheel_01b.jpg	0	0.0	0	235.439541950356	235.48951704520698	0.0499750948511064	59675
59.775	50	334	0	0	panties	1107	25	1	stimuli\panties\panties_10s.jpg	9	-1	1	0	panties_10s.jpg	0	0.0	0	235.53954138979302	235.58951989794102	0.0499785081483424	59775
59.875	50	335	0	0	apple	30	26	1	stimuli\apple\apple_05s.jpg	4	-1	1	1	apple_05s.jpg	0	0.0	0	235.63954302296003	235.689526895061	0.0499838721007109	59875
59.975	50	336	0	0	wooden_leg	1834	27	1	stimuli\wooden_leg\wooden_leg_09s.jpg	8	-1	1	0	wooden_leg_09s.jpg	0	0.0	0	235.739546363242	235.789529016241	0.0499826529994607	59975
60.075	50	337	0	0	diamond	484	28	1	stimuli\diamond\diamond_12s.jpg	11	-1	1	0	diamond_12s.jpg	0	0.0	0	235.83954921597598	235.889538939577	0.0499897236004472	60075
60.175	50	338	0	0	christmas_card	340	29	1	stimuli\christmas_card\christmas_card_12s.jpg	11	-1	1	0	christmas_card_12s.jpg	1	0.35534526733681604	1	235.939555725548	235.98953789100102	0.0499821654520929	60175
60.275	50	339	0	0	iron	832	30	1	stimuli\iron\iron_08s.jpg	7	-1	1	0	iron_08s.jpg	0	0.0	0	236.039559553377	236.089542450383	0.0499828970059752	60275
60.375	50	340	0	0	strap	1567	31	1	stimuli\strap\strap_10s.jpg	9	-1	1	0	strap_10s.jpg	0	0.0	0	236.139552897308	236.18954530265202	0.0499924053438008	60375
60.475	50	341	0	0	mattress	985	32	1	stimuli\mattress\mattress_02s.jpg	1	-1	1	0	mattress_02s.jpg	0	0.0	0	236.23954916698898	236.28954401053502	0.0499948435463011	60475
60.575	50	342	0	0	cream_cheese	437	33	1	stimuli\cream_cheese\cream_cheese_01b.jpg	0	-1	1	0	cream_cheese_01b.jpg	0	0.0	0	236.339571768418	236.389545644168	0.0499738757498562	60575
60.675	50	343	0	0	tugboat	1725	34	1	stimuli\tugboat\tugboat_08s.jpg	7	-1	1	0	tugboat_08s.jpg	0	0.0	0	236.43957242648997	236.489533136599	0.0499607101082802	60675
60.775	50	344	0	0	submarine	1577	35	1	stimuli\submarine\submarine_03s.jpg	2	-1	1	0	submarine_03s.jpg	0	0.0	0	236.539573085029	236.589558175765	0.0499850907362998	60775
60.875	50	345	0	0	chive	337	36	1	stimuli\chive\chive_12s.jpg	11	-1	1	0	chive_12s.jpg	0	0.0	0	236.639574474655	236.689545668662	0.0499711940065026	60875
60.975	50	346	0	0	helmet	776	37	1	stimuli\helmet\helmet_05s.jpg	4	-1	1	0	helmet_05s.jpg	0	0.0	0	236.739560260437	236.789558029734	0.0499977692961693	60975
61.075	50	347	0	0	air_conditioner	4	38	1	stimuli\air_conditioner\air_conditioner_12s.jpg	11	-1	1	0	air_conditioner_12s.jpg	0	0.0	0	236.839581155218	236.88954381551602	0.0499626602977514	61075
61.175	50	348	0	0	horseshoe	799	39	1	stimuli\horseshoe\horseshoe_03s.jpg	2	-1	1	0	horseshoe_03s.jpg	0	0.0	0	236.93958205729697	236.989548130892	0.0499660735949874	61175
61.275	50	349	0	0	easter_egg	543	40	1	stimuli\easter_egg\easter_egg_09s.jpg	8	-1	1	0	easter_egg_09s.jpg	0	0.0	0	237.039583934471	237.089568050113	0.0499841156415641	61275
61.375	50	350	0	0	limousine	931	41	1	stimuli\limousine\limousine_01s.jpg	0	-1	1	0	limousine_01s.jpg	0	0.0	0	237.13958800584098	237.18956822110297	0.0499802152626216	61375
61.475	50	351	0	0	file2	584	42	1	stimuli\file2\file2_05s.jpg	4	-1	1	0	file2_05s.jpg	0	0.0	0	237.239567209035	237.28956522187198	0.0499980128370225	61475
61.575	50	352	0	0	table	1608	43	1	stimuli\table\table_07s.jpg	6	-1	1	0	table_07s.jpg	0	0.0	0	237.339589322452	237.389569537248	0.0499802147969604	61575
61.675	50	353	0	0	shoelace	1426	44	1	stimuli\shoelace\shoelace_05s.jpg	4	-1	1	0	shoelace_05s.jpg	0	0.0	0	237.439600220881	237.489577266388	0.0499770455062389	61675
61.775	50	354	0	0	sonogram	1496	45	1	stimuli\sonogram\sonogram_09s.jpg	8	-1	1	0	sonogram_09s.jpg	0	0.0	0	237.53958259336702	237.589564758819	0.0499821654520929	61775
61.875	50	355	0	0	peeler	1138	46	1	stimuli\peeler\peeler_04s.jpg	3	-1	1	0	peeler_04s.jpg	0	0.0	0	237.63960178149898	237.689566879999	0.0499650985002518	61875
61.975	50	356	0	0	sandcastle	1355	47	1	stimuli\sandcastle\sandcastle_07s.jpg	6	-1	1	0	sandcastle_07s.jpg	0	0.0	0	237.739586591721	237.789573389571	0.049986797850579	61975
62.075	50	357	0	0	sloth	1471	48	1	stimuli\sloth\sloth_03s.jpg	2	-1	1	0	sloth_03s.jpg	0	0.0	0	237.839593833312	237.889588676393	0.0499948430806398	62075
62.175	50	358	0	0	metal_detector	996	49	1	stimuli\metal_detector\metal_detector_04s.jpg	3	-1	1	0	metal_detector_04s.jpg	0	0.0	0	237.939609607682	237.989591772668	0.0499821649864316	62175
62.275	50	359	0	0	chess_piece	317	50	1	stimuli\chess_piece\chess_piece_09s.jpg	8	-1	1	0	chess_piece_09s.jpg	0	0.0	0	238.03961197240298	238.08959267521303	0.0499807028099895	62275
62.375	50	360	0	0	column	388	51	1	stimuli\column\column_11s.jpg	10	-1	1	0	column_11s.jpg	0	0.0	0	238.13961433759	238.189597478136	0.0499831405468285	62375
62.475	50	361	0	0	flamethrower	607	52	1	stimuli\flamethrower\flamethrower_02s.jpg	1	-1	1	0	flamethrower_02s.jpg	0	0.0	0	238.23962084716203	238.289603987709	0.0499831405468285	62475
62.575	50	362	0	0	crouton	445	53	1	stimuli\crouton\crouton_03s.jpg	2	-1	1	0	crouton_03s.jpg	0	0.0	0	238.339621017687	238.38960440224	0.0499833845533431	62575
62.675	50	363	0	0	belt_buckle	119	54	1	stimuli\belt_buckle\belt_buckle_03s.jpg	2	-1	1	0	belt_buckle_03s.jpg	0	0.0	0	238.43962167622502	238.48958701873198	0.0499653425067663	62675
62.775	50	364	0	0	pipe1	1186	55	1	stimuli\pipe1\pipe1_11s.jpg	10	-1	1	0	pipe1_11s.jpg	0	0.0	0	238.539608925115	238.589605231304	0.0499963061884046	62775
62.875	50	365	0	0	pantyhose	1110	56	1	stimuli\pantyhose\pantyhose_05s.jpg	4	-1	1	0	pantyhose_05s.jpg	0	0.0	0	238.639628112782	238.68961076578097	0.0499826529994607	62875
62.975	50	366	0	0	starfish	1541	57	1	stimuli\starfish\starfish_12s.jpg	11	-1	1	0	starfish_12s.jpg	0	0.0	0	238.73961536167198	238.789595576469	0.0499802147969604	62975
63.075	50	367	0	0	french_horn	642	58	1	stimuli\french_horn\french_horn_08s.jpg	7	-1	1	0	french_horn_08s.jpg	0	0.0	0	238.839614800643	238.88961549568901	0.0500006950460374	63075
63.175	50	368	0	0	bell_pepper	117	59	1	stimuli\bell_pepper\bell_pepper_10s.jpg	9	-1	1	0	bell_pepper_10s.jpg	0	0.0	0	238.93963618297101	238.98961566621398	0.04997948324307799	63175
63.275	50	369	0	0	bean	102	60	1	stimuli\bean\bean_08s.jpg	7	-1	1	0	bean_08s.jpg	0	0.0	0	239.039639279246	239.089620469138	0.049981189891696	63275
63.375	50	370	0	0	plastic_film	1196	61	1	stimuli\plastic_film\plastic_film_11s.jpg	10	-1	1	0	plastic_film_11s.jpg	0	0.0	0	239.13964261952802	239.18960552383203	0.049962904304266	63375
63.475	50	371	0	0	marmalade	976	62	1	stimuli\marmalade\marmalade_03s.jpg	2	-1	1	0	marmalade_03s.jpg	0	0.0	0	239.239640595857	239.289622273296	0.0499816774390638	63475
63.575	50	372	0	0	mousetrap	1029	63	1	stimuli\mousetrap\mousetrap_04n.jpg	3	-1	1	1	mousetrap_04n.jpg	0	0.0	0	239.33964978717302	239.389625613578	0.0499758264049888	63575
63.675	50	373	0	0	outfit	1087	64	1	stimuli\outfit\outfit_08s.jpg	7	-1	1	0	outfit_08s.jpg	0	0.0	0	239.43964459421102	239.489627247211	0.0499826529994607	63675
63.775	50	374	0	0	chicken1	322	65	1	stimuli\chicken1\chicken1_07s.jpg	6	-1	1	0	chicken1_07s.jpg	0	0.0	0	239.539647202939	239.589634732343	0.0499875294044614	63775
63.875	50	375	0	0	bell	116	66	1	stimuli\bell\bell_08s.jpg	7	-1	1	0	bell_08s.jpg	1	0.357245518360287	1	239.63965298142298	239.68963587796298	0.04998289654031401	63875
63.975	50	376	0	0	mushroom	1040	67	1	stimuli\mushroom\mushroom_03n.jpg	2	-1	1	0	mushroom_03n.jpg	0	0.0	0	239.739655346144	239.789636536501	0.0499811903573573	63975
64.075	50	377	0	0	bonsai	164	68	1	stimuli\bonsai\bonsai_12s.jpg	11	-1	1	0	bonsai_12s.jpg	0	0.0	0	239.83965673577003	239.88964085187803	0.0499841161072254	64075
64.175	50	378	0	0	coffee_pot	380	69	1	stimuli\coffee_pot\coffee_pot_09s.jpg	8	-1	1	0	coffee_pot_09s.jpg	0	0.0	0	239.93965885695098	239.989641022403	0.0499821654520929	64175
64.275	50	379	0	0	blind	140	70	1	stimuli\blind\blind_10s.jpg	9	-1	1	0	blind_10s.jpg	0	0.0	0	240.03966219723202	240.089648995083	0.049986797850579	64275
64.375	50	380	0	0	pom-pom	1218	71	1	stimuli\pom-pom\pom-pom_06s.jpg	5	-1	1	0	pom-pom_06s.jpg	0	0.0	0	240.139691868797	240.18964599631698	0.0499541275203228	64375
64.475	50	381	0	0	blimp	139	72	1	stimuli\blimp\blimp_10s.jpg	9	-1	1	0	blimp_10s.jpg	0	0.0	0	240.239667414688	240.289650311694	0.0499828970059752	64475
64.575	50	382	0	0	scooter	1382	73	1	stimuli\scooter\scooter_08s.jpg	7	-1	1	0	scooter_08s.jpg	0	0.0	0	240.339669779874	240.38965170132005	0.0499819214455783	64575
64.675	50	383	0	0	dessert	481	74	1	stimuli\dessert\dessert_02s.jpg	1	-1	1	0	dessert_02s.jpg	0	0.0	0	240.439672876149	240.489654310048	0.0499814338982105	64675
64.775	50	384	0	0	incense	826	75	1	stimuli\incense\incense_10s.jpg	9	-1	1	0	incense_10s.jpg	0	0.0	0	240.53967816662004	240.589659844525	0.0499816779047251	64775
64.875	50	385	0	0	camel	245	76	1	stimuli\camel\camel_10s.jpg	9	-1	1	0	camel_10s.jpg	0	0.0	0	240.63968297001	240.689661721699	0.0499787516891956	64875
64.975	50	386	0	0	pickax	1166	77	1	stimuli\pickax\pickax_09s.jpg	8	-1	1	0	pickax_09s.jpg	0	0.0	0	240.739681433886	240.789667500183	0.0499860662966967	64975
65.075	50	387	0	0	donkey	504	78	1	stimuli\donkey\donkey_05n.jpg	4	-1	1	0	donkey_05n.jpg	0	0.0	0	240.839685505256	240.889664744958	0.0499792397022247	65075
65.175	50	388	0	0	pinwheel	1185	79	1	stimuli\pinwheel\pinwheel_09n.jpg	8	-1	1	0	pinwheel_09n.jpg	0	0.0	0	240.939687138889	240.989667110145	0.0499799712561071	65175
65.275	50	389	0	0	polygraph	1217	80	1	stimuli\polygraph\polygraph_06s.jpg	5	-1	1	0	polygraph_06s.jpg	0	0.0	0	241.039690235164	241.089671913069	0.0499816779047251	65275
65.375	50	390	0	0	basil	81	81	1	stimuli\basil\basil_03s.jpg	2	-1	1	0	basil_03s.jpg	0	0.0	0	241.139693087898	241.189674521796	0.0499814338982105	65375
65.475	50	391	0	0	rack1	1268	82	1	stimuli\rack1\rack1_07s.jpg	6	-1	1	0	rack1_07s.jpg	0	0.0	0	241.23969642817997	241.28967737453098	0.0499809463508427	65475
65.575	50	392	0	0	bookshelf	167	83	1	stimuli\bookshelf\bookshelf_03s.jpg	2	-1	1	0	bookshelf_03s.jpg	0	0.0	0	241.339702206198	241.389678764157	0.0499765579588711	65575
65.675	50	393	0	0	jump_rope	858	84	1	stimuli\jump_rope\jump_rope_02s.jpg	1	-1	1	0	jump_rope_02s.jpg	0	0.0	0	241.43970018299302	241.489683567081	0.0499833840876818	65675
65.775	50	394	0	0	sail	1346	85	1	stimuli\sail\sail_11s.jpg	10	-1	1	0	sail_11s.jpg	0	0.0	0	241.539702060167	241.589685688261	0.0499836280941963	65775
65.875	50	395	0	0	trampoline	1701	86	1	stimuli\trampoline\trampoline_08s.jpg	7	-1	1	0	trampoline_08s.jpg	0	0.0	0	241.63970588799597	241.689690979198	0.04998509120196099	65875
65.975	50	396	0	0	pet_food	1157	87	1	stimuli\pet_food\pet_food_01b.jpg	0	-1	1	0	pet_food_01b.jpg	0	0.0	0	241.739712154027	241.789690174628	0.0499780206009746	65975
66.075	50	397	0	0	octopus	1070	88	1	stimuli\octopus\octopus_02s.jpg	1	-1	1	0	octopus_02s.jpg	0	0.0	0	241.83971378719397	241.889700829051	0.0499870418570936	66075
66.175	50	398	0	0	fudge	647	89	1	stimuli\fudge\fudge_06s.jpg	5	-1	1	0	fudge_06s.jpg	0	0.0	0	241.93971225153703	241.98969392897598	0.0499816774390638	66175
66.275	50	399	0	0	duster	534	90	1	stimuli\duster\duster_02s.jpg	1	-1	1	0	duster_02s.jpg	0	0.0	0	242.039717298001	242.08969970746003	0.0499824094586074	66275
66.375	50	400	0	0	corset	418	91	1	stimuli\corset\corset_11s.jpg	10	-1	1	0	corset_11s.jpg	0	0.0	0	242.139721857384	242.18970182863998	0.0499799712561071	66375
66.475	50	401	0	0	scale	1371	92	1	stimuli\scale\scale_03s.jpg	2	-1	1	1	scale_03s.jpg	0	0.0	0	242.239723003469	242.289706144016	0.0499831405468285	66475
66.575	50	402	0	0	frisbee	643	93	1	stimuli\frisbee\frisbee_10s.jpg	9	-1	1	0	frisbee_10s.jpg	0	0.0	0	242.33972488064302	242.38970485189898	0.0499799712561071	66575
66.675	50	403	0	0	dirt_bike	488	94	1	stimuli\dirt_bike\dirt_bike_12s.jpg	11	-1	1	0	dirt_bike_12s.jpg	0	0.0	0	242.439727733377	242.48970794817401	0.0499802147969604	66675
66.775	50	404	0	0	spam	1504	95	1	stimuli\spam\spam_04s.jpg	3	-1	1	0	spam_04s.jpg	1	0.302181387785822	1	242.539729123004	242.58971006935502	0.0499809463508427	66775
66.875	50	405	0	0	trolley	1715	96	1	stimuli\trolley\trolley_03s.jpg	2	-1	1	0	trolley_03s.jpg	0	0.0	0	242.639731975738	242.68971609137998	0.0499841156415641	66875
66.975	50	406	0	0	car_door	268	97	1	stimuli\car_door\car_door_03s.jpg	2	-1	1	0	car_door_03s.jpg	0	0.0	0	242.739747506101	242.78969773231097	0.0499502262100577	66975
67.075	50	407	0	0	swing	1598	98	1	stimuli\swing\swing_06s.jpg	5	-1	1	0	swing_06s.jpg	0	0.0	0	242.83971598185602	242.88970789918702	0.0499919173307717	67075
67.175	50	408	0	0	rocking_chair	1321	99	1	stimuli\rocking_chair\rocking_chair_01b.jpg	0	-1	1	0	rocking_chair_01b.jpg	0	0.0	0	242.93972931802298	242.989711971022	0.0499826529994607	67175
67.275	50	409	0	0	flip_flop	614	100	1	stimuli\flip_flop\flip_flop_11s.jpg	10	-1	1	0	flip_flop_11s.jpg	0	0.0	0	243.039720223751	243.08970214566202	0.0499819219112396	67275
67.375	50	410	0	0	lipstick	936	101	1	stimuli\lipstick\lipstick_03s.jpg	2	-1	1	0	lipstick_03s.jpg	0	0.0	0	243.139721613843	243.189702803735	0.049981189891696	67375
67.475	50	411	0	0	ski_pole	1455	102	1	stimuli\ski_pole\ski_pole_07s.jpg	6	-1	1	0	ski_pole_07s.jpg	0	0.0	0	243.239736900665	243.289719797205	0.04998289654031401	67475
67.575	50	412	0	0	blowtorch	148	103	1	stimuli\blowtorch\blowtorch_03s.jpg	2	-1	1	0	blowtorch_03s.jpg	0	0.0	0	243.339741216041	243.38972289347998	0.0499816774390638	67575
67.675	50	413	0	0	ambulance	19	104	1	stimuli\ambulance\ambulance_01b.jpg	0	-1	1	0	ambulance_01b.jpg	0	0.0	0	243.439741630573	243.489725014661	0.0499833840876818	67675
67.775	50	414	0	0	llama	938	105	1	stimuli\llama\llama_09s.jpg	8	-1	1	0	llama_09s.jpg	0	0.0	0	243.539743751753	243.589726160746	0.0499824089929461	67775
67.875	50	415	0	0	radiator	1272	106	1	stimuli\radiator\radiator_08n.jpg	7	-1	1	0	radiator_08n.jpg	0	0.0	0	243.639747823123	243.68972925702099	0.0499814338982105	67875
67.975	50	416	0	0	pepperoni	1153	107	1	stimuli\pepperoni\pepperoni_07s.jpg	6	-1	1	0	pepperoni_07s.jpg	0	0.0	0	243.739750675857	243.789730403107	0.0499797272495925	67975
68.075	50	417	0	0	brownie	204	108	1	stimuli\brownie\brownie_02s.jpg	1	-1	1	0	brownie_02s.jpg	0	0.0	0	243.83975182147702	243.88973642513199	0.0499846036545932	68075
68.175	50	418	0	0	boa	150	109	1	stimuli\boa\boa_02s.jpg	1	-1	1	0	boa_02s.jpg	0	0.0	0	243.939743458759	243.989726355765	0.0499828970059752	68175
68.275	50	419	0	0	pallet	1101	110	1	stimuli\pallet\pallet_04s.jpg	3	-1	1	0	pallet_04s.jpg	0	0.0	0	244.0397465555	244.089730183594	0.0499836280941963	68275
68.375	50	420	0	0	cream	436	111	1	stimuli\cream\cream_07s.jpg	6	-1	1	0	cream_07s.jpg	0	0.0	0	244.13975355261903	244.189731329679	0.0499777770601213	68375
68.475	50	421	0	0	mug	1036	112	1	stimuli\mug\mug_05s.jpg	4	-1	1	0	mug_05s.jpg	0	0.0	0	244.239777129143	244.289734181948	0.0499570528045297	68475
68.575	50	422	0	0	sugar_cube	1579	113	1	stimuli\sugar_cube\sugar_cube_12s.jpg	11	-1	1	0	sugar_cube_12s.jpg	0	0.0	0	244.339756332338	244.389738253783	0.0499819214455783	68575
68.675	50	423	0	0	card	271	114	1	stimuli\card\card_10s.jpg	9	-1	1	0	card_10s.jpg	0	0.0	0	244.439772594254	244.489750370849	0.049977776594460004	68675
68.775	50	424	0	0	grill	714	115	1	stimuli\grill\grill_08s.jpg	7	-1	1	0	grill_08s.jpg	0	0.0	0	244.53977495897598	244.589754930232	0.0499799712561071	68775
68.875	50	425	0	0	smoothie	1474	116	1	stimuli\smoothie\smoothie_05s.jpg	4	-1	1	0	smoothie_05s.jpg	0	0.0	0	244.639774642419	244.689756076317	0.0499814338982105	68875
68.975	50	426	0	0	dollhouse	500	117	1	stimuli\dollhouse\dollhouse_10s.jpg	9	-1	1	0	dollhouse_10s.jpg	0	0.0	0	244.739778226241	244.789759904146	0.0499816779047251	68975
69.075	50	427	0	0	hash	756	118	1	stimuli\hash\hash_02s.jpg	1	-1	1	0	hash_02s.jpg	0	0.0	0	244.839784492273	244.889761293773	0.0499768014997244	69075
69.175	50	428	0	0	file1	583	119	1	stimuli\file1\file1_05s.jpg	4	-1	1	1	file1_05s.jpg	0	0.0	0	244.93978246860198	244.9897639025	0.0499814338982105	69175
69.275	50	429	0	0	timer	1661	120	1	stimuli\timer\timer_12s.jpg	11	-1	1	0	timer_12s.jpg	0	0.0	0	245.039787515532	245.089766754769	0.0499792392365634	69275
69.375	50	430	0	0	sweet_potato	1595	121	1	stimuli\sweet_potato\sweet_potato_09s.jpg	8	-1	1	0	sweet_potato_09s.jpg	0	0.0	0	245.139777689707	245.189775459003	0.0499977692961693	69375
69.475	50	431	0	0	paper	1112	122	1	stimuli\paper\paper_04s.jpg	3	-1	1	0	paper_04s.jpg	1	0.29216081742197303	1	245.23979712137998	245.28977441042701	0.0499772890470922	69475
69.575	50	432	0	0	flower	619	123	1	stimuli\flower\flower_02s.jpg	1	-1	1	0	flower_02s.jpg	0	0.0	0	245.33979461016102	245.389775556512	0.0499809463508427	69575
69.675	50	433	0	0	pump	1252	124	1	stimuli\pump\pump_05s.jpg	4	-1	1	0	pump_05s.jpg	0	0.0	0	245.439787466545	245.48976792534802	0.0499804588034749	69675
69.775	50	434	0	0	rudder	1339	125	1	stimuli\rudder\rudder_11s.jpg	10	-1	1	0	rudder_11s.jpg	0	0.0	0	245.53978763707002	245.58976760832599	0.0499799712561071	69775
69.875	50	435	0	0	tooth	1678	126	1	stimuli\tooth\tooth_07s.jpg	6	-1	1	0	tooth_07s.jpg	0	0.0	0	245.639790489804	245.689773142803	0.0499826529994607	69875
69.975	50	436	0	0	altar	16	127	1	stimuli\altar\altar_06s.jpg	5	-1	1	0	altar_06s.jpg	0	0.0	0	245.73979383008597	245.789775019977	0.049981189891696	69975
70.075	50	437	0	0	sawhorse	1367	128	1	stimuli\sawhorse\sawhorse_10s.jpg	9	-1	1	0	sawhorse_10s.jpg	0	0.0	0	245.83979668282	245.889777628705	0.0499809458851814	70075
70.175	50	438	0	0	pecan	1135	129	1	stimuli\pecan\pecan_07s.jpg	6	-1	1	0	pecan_07s.jpg	0	0.0	0	245.939798072446	245.989790233783	0.0499921613372862	70175
70.275	50	439	0	0	flatiron	613	130	1	stimuli\flatiron\flatiron_08s.jpg	7	-1	1	0	flatiron_08s.jpg	0	0.0	0	246.039816285018	246.089784553275	0.0499682682566345	70275
70.375	50	440	0	0	sarcophagus	1358	131	1	stimuli\sarcophagus\sarcophagus_06s.jpg	5	-1	1	0	sarcophagus_06s.jpg	0	0.0	0	246.13980524009102	246.18978447979302	0.0499792397022247	70375
70.475	50	441	0	0	bug	212	132	1	stimuli\bug\bug_04s.jpg	3	-1	1	0	bug_04s.jpg	0	0.0	0	246.23980906792005	246.289790745825	0.0499816779047251	70475
70.575	50	442	0	0	carousel	275	133	1	stimuli\carousel\carousel_03s.jpg	2	-1	1	0	carousel_03s.jpg	0	0.0	0	246.339811433107	246.38979091635	0.04997948324307799	70575
70.675	50	443	0	0	wax	1795	134	1	stimuli\wax\wax_06s.jpg	5	-1	1	0	wax_06s.jpg	0	0.0	0	246.439814529382	246.489793281537	0.0499787521548569	70675
70.775	50	444	0	0	cage	236	135	1	stimuli\cage\cage_04s.jpg	3	-1	1	0	cage_04s.jpg	0	0.0	0	246.53981518792003	246.589797109365	0.0499819214455783	70775
70.875	50	445	0	0	bumper	219	136	1	stimuli\bumper\bumper_09s.jpg	8	-1	1	0	bumper_09s.jpg	0	0.0	0	246.639820478391	246.68979679234297	0.0499763139523566	70875
70.975	50	446	0	0	tool	1676	137	1	stimuli\tool\tool_09s.jpg	8	-1	1	0	tool_09s.jpg	0	0.0	0	246.739822355565	246.789800863713	0.0499785081483424	70975
71.075	50	447	0	0	wheelbarrow	1807	138	1	stimuli\wheelbarrow\wheelbarrow_10s.jpg	9	-1	1	0	wheelbarrow_10s.jpg	0	0.0	0	246.839823257644	246.88980542309602	0.0499821654520929	71075
71.175	50	448	0	0	engine	557	139	1	stimuli\engine\engine_07s.jpg	6	-1	1	0	engine_07s.jpg	0	0.0	0	246.93982440372898	246.989807056729	0.0499826529994607	71175
71.275	50	449	0	0	fern	577	140	1	stimuli\fern\fern_12s.jpg	11	-1	1	0	fern_12s.jpg	0	0.0	0	247.039830182213	247.089810153004	0.0499799707904458	71275
71.375	50	450	0	0	praying_mantis	1238	141	1	stimuli\praying_mantis\praying_mantis_08s.jpg	7	-1	1	0	praying_mantis_08s.jpg	0	0.0	0	247.139832302928	247.189812761731	0.0499804588034749	71375
71.475	50	451	0	0	crane	431	142	1	stimuli\crane\crane_07s.jpg	6	-1	1	0	crane_07s.jpg	0	0.0	0	247.23983369302002	247.28981561446602	0.0499819214455783	71475
71.575	50	452	0	0	grape	702	143	1	stimuli\grape\grape_09s.jpg	8	-1	1	0	grape_09s.jpg	0	0.0	0	247.339838008396	247.389818954747	0.0499809463508427	71575
71.675	50	453	0	0	cornucopia	416	144	1	stimuli\cornucopia\cornucopia_04s.jpg	3	-1	1	0	cornucopia_04s.jpg	0	0.0	0	247.439850613475	247.489821319468	0.0499707059934735	71675
71.775	50	454	0	0	red_carpet	1298	145	1	stimuli\red_carpet\red_carpet_07s.jpg	6	-1	1	0	red_carpet_07s.jpg	1	0.0	0	247.53984322585202	247.58982246555402	0.0499792397022247	71775
71.875	50	455	0	0	earring	540	146	1	stimuli\earring\earring_01b.jpg	0	-1	1	0	earring_01b.jpg	0	0.0	0	247.639847541228	247.68982653692402	0.0499789956957102	71875
71.975	50	456	0	0	muffin	1035	147	1	stimuli\muffin\muffin_02n.jpg	1	-1	1	0	muffin_02n.jpg	0	0.0	0	247.73984649265202	247.789830121212	0.0499836285598576	71975
72.075	50	457	0	0	teapot	1634	148	1	stimuli\teapot\teapot_09s.jpg	8	-1	1	0	teapot_09s.jpg	0	0.0	0	247.839849589393	247.889831998385	0.0499824089929461	72075
72.175	50	458	0	0	toolbox	1677	149	1	stimuli\toolbox\toolbox_09s.jpg	8	-1	1	0	toolbox_09s.jpg	0	0.0	0	247.939852685668	247.989837288857	0.0499846031889319	72175
72.275	50	459	0	0	beanie	104	150	1	stimuli\beanie\beanie_02s.jpg	1	-1	1	0	beanie_02s.jpg	0	0.0	0	248.039856513496	248.089837459847	0.0499809463508427	72275
72.375	50	460	0	0	weed	1802	151	1	stimuli\weed\weed_07s.jpg	6	-1	1	0	weed_07s.jpg	0	0.0	0	248.139858634677	248.189837874379	0.0499792397022247	72375
72.475	50	461	0	0	reel	1299	152	1	stimuli\reel\reel_10s.jpg	9	-1	1	1	reel_10s.jpg	0	0.0	0	248.23986221849898	248.289841945749	0.0499797272495925	72475
72.575	50	462	0	0	stethoscope	1550	153	1	stimuli\stethoscope\stethoscope_10s.jpg	9	-1	1	0	stethoscope_10s.jpg	0	0.0	0	248.339862389024	248.389846261125	0.0499838721007109	72575
72.675	50	463	0	0	eyedropper	566	154	1	stimuli\eyedropper\eyedropper_04s.jpg	3	-1	1	0	eyedropper_04s.jpg	0	0.0	0	248.43986646086003	248.48984545655497	0.0499789956957102	72675
72.775	50	464	0	0	bathrobe	90	155	1	stimuli\bathrobe\bathrobe_09s.jpg	8	-1	1	0	bathrobe_09s.jpg	0	0.0	0	248.53986882604698	248.589850015938	0.049981189891696	72775
72.875	50	465	0	0	airbag	7	156	1	stimuli\airbag\airbag_03s.jpg	2	-1	1	0	airbag_03s.jpg	0	0.0	0	248.639870215673	248.689854331315	0.0499841156415641	72875
72.975	50	466	0	0	goalpost	683	157	1	stimuli\goalpost\goalpost_05s.jpg	4	-1	1	0	goalpost_05s.jpg	0	0.0	0	248.739874531049	248.78985498985298	0.0499804588034749	72975
73.075	50	467	0	0	car	267	158	1	stimuli\car\car_01b.jpg	0	-1	1	0	car_01b.jpg	0	0.0	0	248.83987884642602	248.889858329669	0.04997948324307799	73075
73.175	50	468	0	0	revolver	1304	159	1	stimuli\revolver\revolver_12s.jpg	11	-1	1	0	revolver_12s.jpg	0	0.0	0	248.939880236052	248.989862157498	0.0499819214455783	73175
73.275	50	469	0	0	dynamite	536	160	1	stimuli\dynamite\dynamite_04s.jpg	3	-1	1	0	dynamite_04s.jpg	0	0.0	0	249.039883088786	249.089863303583	0.0499802147969604	73275
73.375	50	470	0	0	television	1641	161	1	stimuli\television\television_02n.jpg	1	-1	1	0	television_02n.jpg	0	0.0	0	249.139885697514	249.189866887406	0.049981189891696	73375
73.475	50	471	0	0	lavender	904	162	1	stimuli\lavender\lavender_08s.jpg	7	-1	1	0	lavender_08s.jpg	0	0.0	0	249.239890744444	249.289871202782	0.0499804583378136	73475
73.575	50	472	0	0	peach	1129	163	1	stimuli\peach\peach_10n.jpg	9	-1	1	0	peach_10n.jpg	0	0.0	0	249.339893109165	249.38987210486098	0.0499789956957102	73575
73.676	50	473	0	0	kitten	875	164	1	stimuli\kitten\kitten_03s.jpg	2	-1	1	0	kitten_03s.jpg	0	0.0	0	249.439898156095	249.489878127351	0.0499799712561071	73676
73.776	50	474	0	0	pennant	1148	165	1	stimuli\pennant\pennant_09s.jpg	8	-1	1	0	pennant_09s.jpg	0	0.0	0	249.539909542073	249.58987781032903	0.0499682682566345	73776
73.876	50	475	0	0	shutter	1440	166	1	stimuli\shutter\shutter_01b.jpg	0	-1	1	0	shutter_01b.jpg	0	0.0	0	249.639900447801	249.68988017505	0.0499797272495925	73876
73.976	50	476	0	0	teabag	1632	167	1	stimuli\teabag\teabag_10s.jpg	9	-1	1	0	teabag_10s.jpg	0	0.0	0	249.739901837427	249.789890829474	0.0499889920465648	73976
74.076	50	477	0	0	videogame	1762	168	1	stimuli\videogame\videogame_03s.jpg	2	-1	1	0	videogame_03s.jpg	0	0.0	0	249.839905909263	249.889885148965	0.0499792397022247	74076
74.176	50	478	0	0	chandelier	305	169	1	stimuli\chandelier\chandelier_07s.jpg	6	-1	1	0	chandelier_07s.jpg	0	0.0	0	249.939908273984	249.989886051044	0.0499777770601213	74176
74.276	50	479	0	0	paperweight	1117	170	1	stimuli\paperweight\paperweight_03s.jpg	2	-1	1	0	paperweight_03s.jpg	0	0.0	0	250.039909907617	250.089895973913	0.0499860662966967	74276
74.376	50	480	0	0	barcode	73	171	1	stimuli\barcode\barcode_04s.jpg	3	-1	1	0	barcode_04s.jpg	0	0.0	0	250.13991763628997	250.189891024493	0.0499733882024884	74376
74.476	50	481	0	0	soy_sauce	1500	172	1	stimuli\soy_sauce\soy_sauce_07s.jpg	6	-1	1	0	soy_sauce_07s.jpg	0	0.0	0	250.23991463752498	250.289896315429	0.0499816779047251	74476
74.576	50	482	0	0	pizza	1192	173	1	stimuli\pizza\pizza_02s.jpg	1	-1	1	0	pizza_02s.jpg	0	0.0	0	250.339918221813	250.389896729961	0.0499785081483424	74576
74.676	50	483	0	0	peanut	1131	174	1	stimuli\peanut\peanut_08s.jpg	7	-1	1	0	peanut_08s.jpg	0	0.0	0	250.439921074081	250.489900313783	0.0499792397022247	74676
74.776	50	484	0	0	chalkboard	303	175	1	stimuli\chalkboard\chalkboard_09s.jpg	8	-1	1	0	chalkboard_09s.jpg	0	0.0	0	250.539922951721	250.589907067362	0.0499841156415641	74776
74.876	50	485	0	0	knitting	880	176	1	stimuli\knitting\knitting_10s.jpg	9	-1	1	0	knitting_10s.jpg	0	0.0	0	250.6399238538	250.68990650679902	0.0499826529994607	74876
74.976	50	486	0	0	cannonball	261	177	1	stimuli\cannonball\cannonball_07s.jpg	6	-1	1	0	cannonball_07s.jpg	0	0.0	0	250.739929144271	250.789911553264	0.0499824089929461	74976
75.076	50	487	0	0	bassinet	85	178	1	stimuli\bassinet\bassinet_04s.jpg	3	-1	1	0	bassinet_04s.jpg	0	0.0	0	250.839930290356	250.889910748694	0.0499804583378136	75076
75.176	50	488	0	0	footbath	631	179	1	stimuli\footbath\footbath_09s.jpg	8	-1	1	0	footbath_09s.jpg	0	0.0	0	250.939934361726	250.989936275873	0.0500019141472876	75176
75.276	50	489	0	0	handcuff	746	180	1	stimuli\handcuff\handcuff_03s.jpg	2	-1	1	0	handcuff_03s.jpg	0	0.0	0	251.039935263805	251.08992011100102	0.0499848471954465	75276
75.376	50	490	0	0	slicer	1463	181	1	stimuli\slicer\slicer_04s.jpg	3	-1	1	0	slicer_04s.jpg	0	0.0	0	251.13993909163398	251.189920281991	0.0499811903573573	75376
75.476	50	491	0	0	hail	732	182	1	stimuli\hail\hail_08s.jpg	7	-1	1	0	hail_08s.jpg	0	0.0	0	251.239941456821	251.28990826197003	0.0499668051488698	75476
75.576	50	492	0	0	cranberry	430	183	1	stimuli\cranberry\cranberry_05s.jpg	4	-1	1	0	cranberry_05s.jpg	0	0.0	0	251.33994650375098	251.38992598699403	0.04997948324307799	75576
75.676	50	493	0	0	squash	1526	184	1	stimuli\squash\squash_12s.jpg	11	-1	1	0	squash_12s.jpg	0	0.0	0	251.439949600026	251.489929327276	0.0499797272495925	75676
75.776	50	494	0	0	buckle	210	185	1	stimuli\buckle\buckle_12s.jpg	11	-1	1	0	buckle_12s.jpg	0	0.0	0	251.53995440294997	251.58993413019903	0.0499797272495925	75776
75.876	50	495	0	0	gum	724	186	1	stimuli\gum\gum_02s.jpg	1	-1	1	0	gum_02s.jpg	0	0.0	0	251.639954573475	251.689932350535	0.0499777770601213	75876
75.976	50	496	0	0	penholder	1146	187	1	stimuli\penholder\penholder_01b.jpg	0	-1	1	0	penholder_01b.jpg	0	0.0	0	251.73995523201302	251.78993934765498	0.0499841156415641	75976
76.076	50	497	0	0	spider_web	1514	188	1	stimuli\spider_web\spider_web_09s.jpg	8	-1	1	0	spider_web_09s.jpg	0	0.0	0	251.83995710918703	251.88993951817997	0.0499824089929461	76076
76.176	50	498	0	0	radar	1271	189	1	stimuli\radar\radar_01s.jpg	0	-1	1	0	radar_01s.jpg	0	0.0	0	251.939960449468	251.98994139581902	0.0499809463508427	76176
76.276	50	499	0	0	cherry	316	190	1	stimuli\cherry\cherry_12s.jpg	11	-1	1	0	cherry_12s.jpg	0	0.0	0	252.039965739939	252.089944004547	0.0499782646074891	76276
76.376	50	500	0	0	wrist	1842	191	1	stimuli\wrist\wrist_12s.jpg	11	-1	1	0	wrist_12s.jpg	0	0.0	0	252.139966398478	252.189947832376	0.0499814338982105	76376
76.476	50	501	0	0	chinchilla	332	192	1	stimuli\chinchilla\chinchilla_10s.jpg	9	-1	1	0	chinchilla_10s.jpg	0	0.0	0	252.23996998229998	252.28995019709703	0.0499802147969604	76476
76.576	50	502	0	0	clothesline	362	193	1	stimuli\clothesline\clothesline_08s.jpg	7	-1	1	0	clothesline_08s.jpg	0	0.0	0	252.339970396832	252.38996255816897	0.0499921613372862	76576
76.676	50	503	0	0	jelly_bean	844	194	1	stimuli\jelly_bean\jelly_bean_06s.jpg	5	-1	1	0	jelly_bean_06s.jpg	0	0.0	0	252.439974468667	252.48995517101102	0.0499807023443282	76676
76.776	50	504	0	0	backscratcher	50	195	1	stimuli\backscratcher\backscratcher_05s.jpg	4	-1	1	0	backscratcher_05s.jpg	0	0.0	0	252.53997707739498	252.58995924238098	0.0499821649864316	76776
76.876	50	505	0	0	coal	367	196	1	stimuli\coal\coal_08s.jpg	7	-1	1	0	coal_08s.jpg	0	0.0	0	252.63997944211602	252.689959413372	0.0499799712561071	76876
76.976	50	506	0	0	glove	680	197	1	stimuli\glove\glove_06s.jpg	5	-1	1	0	glove_06s.jpg	0	0.0	0	252.73998229485	252.78996324120098	0.0499809463508427	76976
77.076	50	507	0	0	jeep	843	198	1	stimuli\jeep\jeep_11s.jpg	10	-1	1	0	jeep_11s.jpg	0	0.0	0	252.839983684476	252.889967312571	0.0499836280941963	77076
77.176	50	508	0	0	doorhandle	508	199	1	stimuli\doorhandle\doorhandle_01b.jpg	0	-1	1	0	doorhandle_01b.jpg	0	0.0	0	252.93998653721098	252.98996772710203	0.049981189891696	77176
77.276	50	509	0	0	toe	1668	200	1	stimuli\toe\toe_06s.jpg	5	-1	1	0	toe_06s.jpg	0	0.0	0	253.039990121033	253.089971798938	0.0499816779047251	77276
77.376	50	510	0	0	whistle	1812	201	1	stimuli\whistle\whistle_06s.jpg	5	-1	1	0	whistle_06s.jpg	0	0.0	0	253.13999248622002	253.189976845402	0.0499843591824174	77376
77.476	50	511	0	0	bungee	221	202	1	stimuli\bungee\bungee_05s.jpg	4	-1	1	0	bungee_05s.jpg	0	0.0	0	253.239995582495	253.289977259934	0.0499816774390638	77476
77.576	50	512	0	0	hockey_stick	783	203	1	stimuli\hockey_stick\hockey_stick_12s.jpg	11	-1	1	0	hockey_stick_12s.jpg	0	0.0	0	253.33999941032397	253.38998108776298	0.0499816774390638	77576
77.676	50	513	0	0	baseball_bat	79	204	1	stimuli\baseball_bat\baseball_bat_05s.jpg	4	-1	1	0	baseball_bat_05s.jpg	0	0.0	0	253.440002262592	253.489982233848	0.0499799712561071	77676
77.776	50	514	0	0	man	963	205	1	stimuli\man\man_03s.jpg	2	-1	1	0	man_03s.jpg	0	0.0	0	253.540005115326	253.589983379934	0.0499782646074891	77776
77.876	50	515	0	0	crystal_ball	455	206	1	stimuli\crystal_ball\crystal_ball_02s.jpg	1	-1	1	0	crystal_ball_02s.jpg	0	0.0	0	253.640006748959	253.689993058797	0.0499863098375499	77876
77.976	50	516	0	0	cordon_bleu	408	207	1	stimuli\cordon_bleu\cordon_bleu_05s.jpg	4	-1	1	0	cordon_bleu_05s.jpg	0	0.0	0	253.74000887014	253.789990791585	0.0499819214455783	77976
78.076	50	517	0	0	locket	942	208	1	stimuli\locket\locket_11s.jpg	10	-1	1	0	locket_11s.jpg	0	0.0	0	253.840014404617	253.889992668759	0.0499782641418278	78076
78.176	50	518	0	0	grinder	716	209	1	stimuli\grinder\grinder_09s.jpg	8	-1	1	0	grinder_09s.jpg	0	0.0	0	253.940013356041	253.989996496588	0.0499831405468285	78176
78.276	50	519	0	0	folder	625	210	1	stimuli\folder\folder_12s.jpg	11	-1	1	0	folder_12s.jpg	0	0.0	0	254.04001937806598	254.089999105316	0.0499797272495925	78276
78.376	50	520	0	0	walker1	1773	211	1	stimuli\walker1\walker1_05s.jpg	4	-1	1	0	walker1_05s.jpg	0	0.0	0	254.140020036604	254.190000494942	0.0499804583378136	78376
78.476	50	521	0	0	cuckoo_clock	456	212	1	stimuli\cuckoo_clock\cuckoo_clock_05s.jpg	4	-1	1	0	cuckoo_clock_05s.jpg	0	0.0	0	254.240022401325	254.290013587568	0.0499911862425506	78476
78.576	50	522	0	0	backgammon	48	213	1	stimuli\backgammon\backgammon_05s.jpg	4	-1	1	0	backgammon_05s.jpg	0	0.0	0	254.340029398911	254.390007175505	0.049977776594460004	78576
78.676	50	523	0	0	computer_screen	395	214	1	stimuli\computer_screen\computer_screen_01b.jpg	0	-1	1	0	computer_screen_01b.jpg	0	0.0	0	254.440028350335	254.490009052679	0.0499807023443282	78676
78.776	50	524	0	0	ice	816	215	1	stimuli\ice\ice_01b.jpg	0	-1	1	0	ice_01b.jpg	0	0.0	0	254.540031203069	254.59001141786598	0.0499802147969604	78776
78.876	50	525	0	0	gift	672	216	1	stimuli\gift\gift_12s.jpg	11	-1	1	0	gift_12s.jpg	0	0.0	0	254.640034299344	254.690014514141	0.0499802147969604	78876
78.976	50	526	0	0	squid	1528	217	1	stimuli\squid\squid_10s.jpg	9	-1	1	0	squid_10s.jpg	0	0.0	0	254.740035445429	254.790016879328	0.0499814338982105	78976
79.076	50	527	0	0	wallet	1776	218	1	stimuli\wallet\wallet_05s.jpg	4	-1	1	0	wallet_05s.jpg	0	0.0	0	254.840040248353	254.890019731596	0.04997948324307799	79076
79.176	50	528	0	0	fan	571	219	1	stimuli\fan\fan_02s.jpg	1	-1	1	0	fan_02s.jpg	0	0.0	0	254.94004212552701	254.99002331588403	0.0499811903573573	79176
79.276	50	529	0	0	guacamole	719	220	1	stimuli\guacamole\guacamole_03s.jpg	2	-1	1	0	guacamole_03s.jpg	0	0.0	0	255.04004375916	255.090026899707	0.0499831405468285	79276
79.376	50	530	0	0	ring	1313	221	1	stimuli\ring\ring_06s.jpg	5	-1	1	0	ring_06s.jpg	0	0.0	0	255.140047099441	255.19002926442798	0.0499821649864316	79376
79.476	50	531	0	0	traffic_light	1696	222	1	stimuli\traffic_light\traffic_light_05s.jpg	4	-1	1	0	traffic_light_05s.jpg	0	0.0	0	255.240050683264	255.29003065452002	0.0499799712561071	79476
79.576	50	532	0	0	ice_cream	818	223	1	stimuli\ice_cream\ice_cream_03s.jpg	2	-1	1	0	ice_cream_03s.jpg	0	0.0	0	255.340053779539	255.39003448234902	0.0499807028099895	79576
79.676	50	533	0	0	stake	1533	224	1	stimuli\stake\stake_09s.jpg	8	-1	1	0	stake_09s.jpg	0	0.0	0	255.440055900719	255.490038066171	0.0499821654520929	79676
79.776	50	534	0	0	glasses	678	225	1	stimuli\glasses\glasses_01b.jpg	0	-1	1	0	glasses_01b.jpg	0	0.0	0	255.540058509447	255.59003848070302	0.0499799712561071	79776
79.876	50	535	0	0	bagpipe	56	226	1	stimuli\bagpipe\bagpipe_01b.jpg	0	-1	1	0	bagpipe_01b.jpg	0	0.0	0	255.640062093735	255.690042064525	0.0499799707904458	79876
79.976	50	536	0	0	tweezers	1739	227	1	stimuli\tweezers\tweezers_03s.jpg	2	-1	1	0	tweezers_03s.jpg	0	0.0	0	255.74006226426002	255.790044185705	0.0499819214455783	79976
80.076	50	537	0	0	ski_lift	1454	228	1	stimuli\ski_lift\ski_lift_05s.jpg	4	-1	1	0	ski_lift_05s.jpg	0	0.0	0	255.840066579636	255.890048988629	0.0499824089929461	80076
80.176	50	538	0	0	thumb	1653	229	1	stimuli\thumb\thumb_01b.jpg	0	-1	1	0	thumb_01b.jpg	0	0.0	0	255.940068700816	255.990048428066	0.0499797272495925	80176
80.276	50	539	0	0	pita	1189	230	1	stimuli\pita\pita_03s.jpg	2	-1	1	0	pita_03s.jpg	0	0.0	0	256.040075454395	256.090054694097	0.0499792397022247	80276
80.376	50	540	0	0	shoulder	1431	231	1	stimuli\shoulder\shoulder_05s.jpg	4	-1	1	0	shoulder_05s.jpg	0	0.0	0	256.14007489383204	256.190054377075	0.04997948324307799	80376
80.476	50	541	0	0	baseball	78	232	1	stimuli\baseball\baseball_08s.jpg	7	-1	1	0	baseball_08s.jpg	0	0.0	0	256.240081403404	256.290059424005	0.0499780206009746	80476
80.576	50	542	0	0	bunkbed	222	233	1	stimuli\bunkbed\bunkbed_12s.jpg	11	-1	1	0	bunkbed_12s.jpg	0	0.0	0	256.340079623275	256.39006105763804	0.0499814343638718	80576
80.676	50	543	0	0	torpedo	1684	234	1	stimuli\torpedo\torpedo_07s.jpg	6	-1	1	0	torpedo_07s.jpg	0	0.0	0	256.440082232468	256.490063178353	0.0499809458851814	80676
80.776	50	544	0	0	lamb	889	235	1	stimuli\lamb\lamb_02s.jpg	1	-1	1	0	lamb_02s.jpg	0	0.0	0	256.540085328743	256.590066762641	0.0499814338982105	80776
80.876	50	545	0	0	grate	707	236	1	stimuli\grate\grate_04s.jpg	3	-1	1	0	grate_04s.jpg	0	0.0	0	256.640088425018	256.690070102923	0.0499816779047251	80876
80.976	50	546	0	0	snowsuit	1486	237	1	stimuli\snowsuit\snowsuit_07s.jpg	6	-1	1	0	snowsuit_07s.jpg	0	0.0	0	256.74010663759	256.790071005002	0.0499643674120307	80976
81.076	50	547	0	0	lampshade	893	238	1	stimuli\lampshade\lampshade_08s.jpg	7	-1	1	0	lampshade_08s.jpg	0	0.0	0	256.840093642473	256.89007336972304	0.0499797272495925	81076
81.176	50	548	0	0	prism	1241	239	1	stimuli\prism\prism_01b.jpg	0	-1	1	0	prism_01b.jpg	0	0.0	0	256.94009576365397	256.990075490903	0.0499797272495925	81176
81.276	50	549	0	0	nail_clippers	1047	240	1	stimuli\nail_clippers\nail_clippers_12s.jpg	11	-1	1	0	nail_clippers_12s.jpg	0	0.0	0	257.04009837238095	257.09008126938704	0.0499828970059752	81276
81.376	50	550	0	0	robe	1317	241	1	stimuli\robe\robe_09s.jpg	8	-1	1	0	robe_09s.jpg	0	0.0	0	257.140100981109	257.190082659014	0.0499816779047251	81376
81.476	50	551	0	0	top_hat	1682	242	1	stimuli\top_hat\top_hat_10s.jpg	9	-1	1	0	top_hat_10s.jpg	0	0.0	0	257.240103833843	257.29008648684203	0.0499826529994607	81476
81.576	50	552	0	0	tennis_ball	1642	243	1	stimuli\tennis_ball\tennis_ball_05s.jpg	4	-1	1	0	tennis_ball_05s.jpg	0	0.0	0	257.340108149219	257.390087632462	0.04997948324307799	81576
81.676	50	553	0	0	stalagmite	1534	244	1	stimuli\stalagmite\stalagmite_01b.jpg	0	-1	1	0	stalagmite_01b.jpg	1	0.0	0	257.440111245494	257.490089510102	0.0499782646074891	81676
81.776	50	554	0	0	drink	521	245	1	stimuli\drink\drink_05s.jpg	4	-1	1	0	drink_05s.jpg	0	0.0	0	257.54011214757304	257.590094313025	0.0499821654520929	81776
81.876	50	555	0	0	screen2	1389	246	1	stimuli\screen2\screen2_12s.jpg	11	-1	1	0	screen2_12s.jpg	0	0.0	0	257.6401135372	257.69009619019903	0.0499826529994607	81876
81.976	50	556	0	0	rhinoceros	1306	247	1	stimuli\rhinoceros\rhinoceros_10s.jpg	9	-1	1	0	rhinoceros_10s.jpg	0	0.0	0	257.74011663394	257.79009831137995	0.0499816774390638	81976
82.076	50	557	0	0	acorn	3	248	1	stimuli\acorn\acorn_06s.jpg	5	-1	1	0	acorn_06s.jpg	0	0.0	0	257.840119730216	257.890101895668	0.0499821654520929	82076
82.176	50	558	0	0	notebook	1064	249	1	stimuli\notebook\notebook_07s.jpg	6	-1	1	0	notebook_07s.jpg	0	0.0	0	257.94012404559203	257.99010304128797	0.0499789956957102	82176
82.276	50	559	0	0	palm_tree	1102	250	1	stimuli\palm_tree\palm_tree_10s.jpg	9	-1	1	0	palm_tree_10s.jpg	0	0.0	0	258.04013250581903	258.090107844677	0.04997533885762099	82276
82.376	50	560	0	0	cooler	403	251	1	stimuli\cooler\cooler_12s.jpg	11	-1	1	0	cooler_12s.jpg	0	0.0	0	258.140126337297	258.190109234303	0.0499828970059752	82376
82.476	50	561	0	0	handbrake	745	252	1	stimuli\handbrake\handbrake_04s.jpg	3	-1	1	1	handbrake_04s.jpg	0	0.0	0	258.24013211578097	258.29011379322003	0.0499816774390638	82476
82.576	50	562	0	0	knot	883	253	1	stimuli\knot\knot_07s.jpg	6	-1	1	0	knot_07s.jpg	0	0.0	0	258.340133261401	258.390115914401	0.0499826529994607	82576
82.676	50	563	0	0	block	143	254	1	stimuli\block\block_01b.jpg	0	-1	1	0	block_01b.jpg	0	0.0	0	258.440136358142	258.490117548034	0.049981189891696	82676
82.776	50	564	0	0	turkey	1733	255	1	stimuli\turkey\turkey_08s.jpg	7	-1	1	0	turkey_08s.jpg	0	0.0	0	258.54013896687	258.590120644309	0.0499816774390638	82776
82.876	50	565	0	0	rag	1276	256	1	stimuli\rag\rag_02s.jpg	1	-1	1	0	rag_02s.jpg	0	0.0	0	258.64014596398897	258.690121302847	0.04997533885762099	82876
82.976	50	566	0	0	rhubarb	1307	257	1	stimuli\rhubarb\rhubarb_03s.jpg	2	-1	1	0	rhubarb_03s.jpg	0	0.0	0	258.740149060264	258.79012610577	0.0499770455062389	82976
83.076	50	567	0	0	water_filter	1789	258	1	stimuli\water_filter\water_filter_04s.jpg	3	-1	1	0	water_filter_04s.jpg	0	0.0	0	258.840148499701	258.89012725185603	0.0499787521548569	83076
83.176	50	568	0	0	flipper	615	259	1	stimuli\flipper\flipper_03s.jpg	2	-1	1	0	flipper_03s.jpg	0	0.0	0	258.94014842668497	258.990129616577	0.049981189891696	83176
83.276	50	569	0	0	mulch	1038	260	1	stimuli\mulch\mulch_08s.jpg	7	-1	1	0	mulch_08s.jpg	0	0.0	0	259.040153229609	259.090133688413	0.0499804588034749	83276
83.376	50	570	0	0	footrest	633	261	1	stimuli\footrest\footrest_05s.jpg	4	-1	1	0	footrest_05s.jpg	0	0.0	0	259.140156569891	259.19013629714	0.0499797272495925	83376
83.476	50	571	0	0	jacket	836	262	1	stimuli\jacket\jacket_06s.jpg	5	-1	1	0	jacket_06s.jpg	0	0.0	0	259.24015747197	259.29013988096295	0.0499824089929461	83476
83.576	50	572	0	0	gearshift	668	263	1	stimuli\gearshift\gearshift_11n.jpg	10	-1	1	0	gearshift_11n.jpg	0	0.0	0	259.340160324238	259.390147366095	0.0499870418570936	83576
83.676	50	573	0	0	star_fruit	1540	264	1	stimuli\star_fruit\star_fruit_09s.jpg	8	-1	1	0	star_fruit_09s.jpg	0	0.0	0	259.440164152067	259.490145585965	0.0499814338982105	83676
83.776	50	574	0	0	flag	605	265	1	stimuli\flag\flag_09s.jpg	8	-1	1	0	flag_09s.jpg	0	0.0	0	259.540165542159	259.590150145348	0.0499846031889319	83776
83.876	50	575	0	0	sheet	1415	266	1	stimuli\sheet\sheet_12s.jpg	11	-1	1	0	sheet_12s.jpg	0	0.0	0	259.640170101076	259.690149828326	0.0499797272495925	83876
83.976	50	576	0	0	cannon	260	267	1	stimuli\cannon\cannon_11s.jpg	10	-1	1	0	cannon_11s.jpg	0	0.0	0	259.740171490703	259.790150730405	0.0499792397022247	83976
84.076	50	577	0	0	stamp1	1535	268	1	stimuli\stamp1\stamp1_10s.jpg	9	-1	1	0	stamp1_10s.jpg	0	0.0	0	259.840173368342	259.890155045781	0.0499816774390638	84076
84.176	50	578	0	0	kaleidoscope	861	269	1	stimuli\kaleidoscope\kaleidoscope_02s.jpg	1	-1	1	0	kaleidoscope_02s.jpg	0	0.0	0	259.940177196171	259.99015741096804	0.0499802147969604	84176
84.276	50	579	0	0	sparkler	1507	270	1	stimuli\sparkler\sparkler_11s.jpg	10	-1	1	0	sparkler_11s.jpg	0	0.0	0	260.040180779994	260.090160507243	0.0499797272495925	84276
84.376	50	580	0	0	clipper1	356	271	1	stimuli\clipper1\clipper1_05s.jpg	4	-1	1	0	clipper1_05s.jpg	0	0.0	0	260.14018728956603	260.19016287242994	0.0499755828641355	84376
84.476	50	581	0	0	quad	1260	272	1	stimuli\quad\quad_07s.jpg	6	-1	1	0	quad_07s.jpg	0	0.0	0	260.240185509901	260.290166212246	0.0499807023443282	84476
84.576	50	582	0	0	piano	1165	273	1	stimuli\piano\piano_03n.jpg	2	-1	1	0	piano_03n.jpg	0	0.0	0	260.340186899528	260.39016857743303	0.0499816779047251	84576
84.676	50	583	0	0	float	616	274	1	stimuli\float\float_08s.jpg	7	-1	1	0	float_08s.jpg	0	0.0	0	260.44018975226203	260.49017289280897	0.0499831405468285	84676
84.776	50	584	0	0	insole	831	275	1	stimuli\insole\insole_04s.jpg	3	-1	1	0	insole_04s.jpg	0	0.0	0	260.540193336084	260.590175989084	0.0499826529994607	84776
84.876	50	585	0	0	parsley	1122	276	1	stimuli\parsley\parsley_07n.jpg	6	-1	1	0	parsley_07n.jpg	0	0.0	0	260.640194969717	260.69017567206197	0.0499807023443282	84876
84.976	50	586	0	0	aardvark	0	277	1	stimuli\aardvark\aardvark_06s.jpg	5	-1	1	0	aardvark_06s.jpg	0	0.0	0	260.740200016648	260.790180475451	0.0499804588034749	84976
85.076	50	587	0	0	flypaper	622	278	1	stimuli\flypaper\flypaper_08s.jpg	7	-1	1	0	flypaper_08s.jpg	0	0.0	0	260.840200187173	260.890181621071	0.0499814338982105	85076
85.176	50	588	0	0	filter	587	279	1	stimuli\filter\filter_12s.jpg	11	-1	1	0	filter_12s.jpg	0	0.0	0	260.940204259008	260.990186180454	0.0499819214455783	85176
85.276	50	589	0	0	satellite_dish	1361	280	1	stimuli\satellite_dish\satellite_dish_01b.jpg	0	-1	1	0	satellite_dish_01b.jpg	0	0.0	0	261.040206867736	261.090187814087	0.0499809463508427	85276
85.376	50	590	0	0	saxophone	1368	281	1	stimuli\saxophone\saxophone_04s.jpg	3	-1	1	0	saxophone_04s.jpg	0	0.0	0	261.140208988916	261.190190910362	0.0499819214455783	85376
85.476	50	591	0	0	pipe2	1187	282	1	stimuli\pipe2\pipe2_02s.jpg	1	-1	1	0	pipe2_02s.jpg	0	0.0	0	261.240213304292	261.290191568434	0.0499782641418278	85476
85.576	50	592	0	0	tablecloth	1609	283	1	stimuli\tablecloth\tablecloth_01b.jpg	0	-1	1	0	tablecloth_01b.jpg	0	0.0	0	261.340214206371	261.390193689615	0.04997948324307799	85576
85.676	50	593	0	0	garter	659	284	1	stimuli\garter\garter_05s.jpg	4	-1	1	0	garter_05s.jpg	0	0.0	0	261.440217059106	261.490222142544	0.050005083438009	85676
85.776	50	594	0	0	macaroni	952	285	1	stimuli\macaroni\macaroni_12s.jpg	11	-1	1	0	macaroni_12s.jpg	0	0.0	0	261.54022137448203	261.590200126171	0.0499787516891956	85776
85.876	50	595	0	0	soup	1499	286	1	stimuli\soup\soup_02s.jpg	1	-1	1	0	soup_02s.jpg	0	0.0	0	261.640221301001	261.690204198007	0.0499828970059752	85876
85.976	50	596	0	0	lawnmower	905	287	1	stimuli\lawnmower\lawnmower_10n.jpg	9	-1	1	0	lawnmower_10n.jpg	0	0.0	0	261.740232686978	261.79020826937597	0.0499755823984742	85976
86.076	50	597	0	0	speedboat	1511	288	1	stimuli\speedboat\speedboat_08s.jpg	7	-1	1	0	speedboat_08s.jpg	0	0.0	0	261.840229200665	261.890208440367	0.0499792397022247	86076
86.176	50	598	0	0	nail	1046	289	1	stimuli\nail\nail_05s.jpg	4	-1	1	0	nail_05s.jpg	0	0.0	0	261.94023107783903	261.990212755743	0.0499816779047251	86176
86.276	50	599	0	0	mantle	969	290	1	stimuli\mantle\mantle_01s.jpg	0	-1	1	0	mantle_01s.jpg	0	0.0	0	262.040234174114	262.090214389376	0.0499802152626216	86276
86.376	50	600	0	0	cilantro	347	291	1	stimuli\cilantro\cilantro_01b.jpg	0	-1	1	0	cilantro_01b.jpg	0	0.0	0	262.140235564206	262.19021724164503	0.0499816774390638	86376
86.476	50	601	0	0	bouquet	173	292	1	stimuli\bouquet\bouquet_11s.jpg	10	-1	1	0	bouquet_11s.jpg	0	0.0	0	262.240240611136	262.290220338386	0.0499797272495925	86476
86.576	50	602	0	0	fig	581	293	1	stimuli\fig\fig_12s.jpg	11	-1	1	0	fig_12s.jpg	0	0.0	0	262.340241269208	262.390222215559	0.0499809463508427	86576
86.676	50	603	0	0	needle	1055	294	1	stimuli\needle\needle_03s.jpg	2	-1	1	0	needle_03s.jpg	0	0.0	0	262.440244853031	262.49022458027997	0.0499797272495925	86676
86.776	50	604	0	0	goggles	686	295	1	stimuli\goggles\goggles_11s.jpg	10	-1	1	0	goggles_11s.jpg	0	0.0	0	262.540269648656	262.590226701461	0.0499570528045297	86776
86.876	50	605	0	0	sponge	1517	296	1	stimuli\sponge\sponge_03s.jpg	2	-1	1	0	sponge_03s.jpg	0	0.0	0	262.640250070952	262.69023052929003	0.0499804583378136	86876
86.976	50	606	0	0	truck	1720	297	1	stimuli\truck\truck_06s.jpg	5	-1	1	0	truck_06s.jpg	0	0.0	0	262.740255117416	262.790234601125	0.0499794837087393	86976
87.076	50	607	0	0	forklift	635	298	1	stimuli\forklift\forklift_04n.jpg	3	-1	1	0	forklift_04n.jpg	0	0.0	0	262.840253581759	262.890234527644	0.0499809458851814	87076
87.176	50	608	0	0	swab	1590	299	1	stimuli\swab\swab_07s.jpg	6	-1	1	0	swab_07s.jpg	0	0.0	0	262.940256434027	262.990235673729	0.0499792397022247	87176
87.276	50	609	0	0	test_tube	1645	300	1	stimuli\test_tube\test_tube_08s.jpg	7	-1	1	0	test_tube_08s.jpg	0	0.0	0	263.040260018315	263.090244377963	0.0499843596480787	87276
87.376	50	610	0	0	chalice	301	301	1	stimuli\chalice\chalice_09s.jpg	8	-1	1	0	chalice_09s.jpg	0	0.0	0	263.140264089685	263.190245280042	0.0499811903573573	87376
87.476	50	611	0	0	sticker	1553	302	1	stimuli\sticker\sticker_07s.jpg	6	-1	1	0	sticker_07s.jpg	0	0.0	0	263.240279620513	263.290246425662	0.0499668051488698	87476
87.576	50	612	0	0	baton3	94	303	1	stimuli\baton3\baton3_02s.jpg	1	-1	1	0	baton3_02s.jpg	0	0.0	0	263.34026857605204	263.390250253491	0.0499816774390638	87576
87.676	50	613	0	0	underwear	1745	304	1	stimuli\underwear\underwear_07s.jpg	6	-1	1	0	underwear_07s.jpg	0	0.0	0	263.440270697232	263.490250912029	0.0499802147969604	87676
