onset	duration	eventnumber	blocksequencenumber	isteststim	object	objectnumber	presentationnumber	sequencenumber	stim	stimnumber	teststimnumber	withinsequencenumber	istarget	stimname	response	rt	correct	time_stimon	time_stimoff	stimdur	sample
71.917	50	0	0	0	maple_syrup	971	0	0	stimuli\maple_syrup\maple_syrup_11s.jpg	10	-1	0	0	maple_syrup_11s.jpg	0	0.0	0	64.4988927402665	64.5488487692637	0.0499560289972578	71917
72.017	50	1	0	0	eggplant	550	1	0	stimuli\eggplant\eggplant_04s.jpg	3	-1	0	0	eggplant_04s.jpg	0	0.0	0	64.59888720579329	64.6488595700139	0.0499723642205936	72017
72.117	50	2	0	0	sail	1346	2	0	stimuli\sail\sail_02s.jpg	1	-1	0	0	sail_02s.jpg	0	0.0	0	64.6988672865773	64.74884160127111	0.0499743146938272	72117
72.217	50	3	0	0	origami	1083	3	0	stimuli\origami\origami_07s.jpg	6	-1	0	0	origami_07s.jpg	0	0.0	0	64.7989014930135	64.8488589848712	0.04995749185764	72217
72.317	50	4	0	0	sauerkraut	1364	4	0	stimuli\sauerkraut\sauerkraut_10s.jpg	9	-1	0	0	sauerkraut_10s.jpg	0	0.0	0	64.898898396641	64.9488800256149	0.0499816289739101	72317
72.417	50	5	0	0	grinder	716	5	0	stimuli\grinder\grinder_08s.jpg	7	-1	0	0	grinder_08s.jpg	0	0.0	0	64.9989023707312	65.04951790376799	0.0506155330367619	72417
72.517	50	6	0	0	cello	292	6	0	stimuli\cello\cello_02s.jpg	1	-1	0	0	cello_02s.jpg	0	0.0	0	65.09890098101461	65.1488816347555	0.0499806537409313	72517
72.617	50	7	0	0	hippopotamus	781	7	0	stimuli\hippopotamus\hippopotamus_10s.jpg	9	-1	0	0	hippopotamus_10s.jpg	0	0.0	0	65.1989017855885	65.2488802450389	0.0499784594503581	72617
72.717	50	8	0	0	ankle	22	8	0	stimuli\ankle\ankle_02s.jpg	1	-1	0	0	ankle_02s.jpg	0	0.0	0	65.2988867425593	65.3488851943694	0.0499984518100973	72717
72.817	50	9	0	0	headrest	767	9	0	stimuli\headrest\headrest_10s.jpg	9	-1	0	0	headrest_10s.jpg	0	0.0	0	65.3988855966527	65.4488723456234	0.0499867489706958	72817
72.917	50	10	0	0	meat_grinder	988	10	0	stimuli\meat_grinder\meat_grinder_09s.jpg	8	-1	0	0	meat_grinder_09s.jpg	0	0.0	0	65.49889786025601	65.54888753494009	0.0499896746841841	72917
73.017	50	11	0	0	exerciser	561	11	0	stimuli\exerciser\exerciser_01b.jpg	0	-1	0	0	exerciser_01b.jpg	0	0.0	0	65.5989135371929	65.64886347096039	0.0499499337674933	73017
73.117	50	12	0	0	robe	1317	12	0	stimuli\robe\robe_09s.jpg	8	-1	0	0	robe_09s.jpg	0	0.0	0	65.6989009322569	65.7488754907608	0.0499745585038909	73117
73.217	50	13	0	0	tiger	1659	13	0	stimuli\tiger\tiger_04s.jpg	3	-1	0	0	tiger_04s.jpg	0	0.0	0	65.79889466636091	65.8488848286506	0.0499901622897596	73217
73.317	50	14	0	0	locket	942	14	0	stimuli\locket\locket_12s.jpg	11	-1	0	0	locket_12s.jpg	0	0.0	0	65.8989193642337	65.9489085512978	0.0499891870640568	73317
73.417	50	15	0	0	sheep	1414	15	0	stimuli\sheep\sheep_06s.jpg	5	-1	0	0	sheep_06s.jpg	0	0.0	0	65.9989213878507	66.0488410892722	0.0499197014214587	73417
73.517	50	16	0	0	waffle	1770	16	0	stimuli\waffle\waffle_07s.jpg	6	-1	0	0	waffle_07s.jpg	0	0.0	0	66.0989075638645	66.148893581405	0.0499860175405047	73517
73.617	50	17	0	0	potato	1231	17	0	stimuli\potato\potato_04s.jpg	3	-1	0	0	potato_04s.jpg	0	0.0	0	66.1989273855579	66.2489114526252	0.0499840670672711	73617
73.717	50	18	0	0	cushion	466	18	0	stimuli\cushion\cushion_09s.jpg	8	-1	0	0	cushion_09s.jpg	0	0.0	0	66.2989123425286	66.3489093314856	0.0499969889569911	73717
73.817	50	19	0	0	pencil_sharpener	1143	19	0	stimuli\pencil_sharpener\pencil_sharpener_04s.jpg	3	-1	0	0	pencil_sharpener_04s.jpg	0	0.0	0	66.3989343585054	66.4489094046294	0.0499750461240183	73817
73.917	50	20	0	0	acorn	3	20	0	stimuli\acorn\acorn_08s.jpg	7	-1	0	0	acorn_08s.jpg	0	0.0	0	66.49893467545921	66.5488975311164	0.0499628556572134	73917
74.017	50	21	0	0	sandbox	1354	21	0	stimuli\sandbox\sandbox_08s.jpg	7	-1	0	0	sandbox_08s.jpg	0	0.0	0	66.5989393809723	66.6489171089997	0.0499777280274429	74017
74.117	50	22	0	0	rain_gauge	1278	22	0	stimuli\rain_gauge\rain_gauge_12s.jpg	11	-1	0	0	rain_gauge_12s.jpg	0	0.0	0	66.69894189220939	66.7489266907069	0.0499847984974622	74117
74.217	50	23	0	0	cereal	297	23	0	stimuli\cereal\cereal_02s.jpg	1	-1	0	0	cereal_02s.jpg	0	0.0	0	66.7989407463101	66.8489243257573	0.0499835794471437	74217
74.317	50	24	0	0	latte	901	24	0	stimuli\latte\latte_12s.jpg	11	-1	0	0	latte_12s.jpg	0	0.0	0	66.8989442327802	66.9489124522443	0.0499682194640627	74317
74.417	50	25	0	0	hard_disk	752	25	0	stimuli\hard_disk\hard_disk_02s.jpg	1	-1	0	0	hard_disk_02s.jpg	0	0.0	0	66.99895210781689	67.0489295920343	0.0499774842173792	74417
74.517	50	26	0	0	chinchilla	332	26	0	stimuli\chinchilla\chinchilla_03s.jpg	2	-1	0	0	chinchilla_03s.jpg	0	0.0	0	67.0989512057276	67.1489340537446	0.0499828480169526	74517
74.617	50	27	0	0	gorilla	695	27	0	stimuli\gorilla\gorilla_12s.jpg	11	-1	0	0	gorilla_12s.jpg	0	0.0	0	67.19895152267421	67.2489351021213	0.0499835794471437	74617
74.717	50	28	0	0	cranberry	430	28	0	stimuli\cranberry\cranberry_03n.jpg	2	-1	0	0	cranberry_03n.jpg	0	0.0	0	67.2989828034042	67.3489356628852	0.0499528594809817	74717
74.817	50	29	0	0	bench	120	29	0	stimuli\bench\bench_05s.jpg	4	-1	0	0	bench_05s.jpg	0	0.0	0	67.39895654514841	67.44894305030179	0.0499865051533561	74817
74.917	50	30	0	0	pine_needle	1180	30	0	stimuli\pine_needle\pine_needle_07s.jpg	6	-1	0	0	pine_needle_07s.jpg	0	0.0	0	67.4989600316185	67.5489245939461	0.0499645623276592	74917
75.017	50	31	0	0	tool	1676	31	0	stimuli\tool\tool_11s.jpg	10	-1	0	0	tool_11s.jpg	0	0.0	0	67.598929140986	67.6489468537256	0.0500177127396455	75017
75.117	50	32	0	0	cordon_bleu	408	32	0	stimuli\cordon_bleu\cordon_bleu_05s.jpg	4	-1	0	0	cordon_bleu_05s.jpg	0	0.0	0	67.69894945029961	67.74894522020621	0.0499957699066726	75117
75.217	50	33	0	0	board	152	33	0	stimuli\board\board_05s.jpg	4	-1	0	0	board_05s.jpg	0	0.0	0	67.7989514739165	67.8489355409765	0.0499840670599951	75217
75.317	50	34	0	0	napkin_ring	1051	34	0	stimuli\napkin_ring\napkin_ring_11s.jpg	10	-1	0	0	napkin_ring_11s.jpg	0	0.0	0	67.8989732460832	67.9489492674402	0.0499760213569971	75317
75.417	50	35	0	0	sewing_kit	1406	35	0	stimuli\sewing_kit\sewing_kit_06s.jpg	5	-1	0	0	sewing_kit_06s.jpg	0	0.0	0	67.9989716125565	68.0489376377373	0.0499660251807654	75417
75.517	50	36	0	0	toolbox	1677	36	0	stimuli\toolbox\toolbox_03s.jpg	2	-1	0	0	toolbox_03s.jpg	0	0.0	0	68.0989577885775	68.14895575276749	0.0499979641899699	75517
75.617	50	37	0	0	golf_club	690	37	0	stimuli\golf_club\golf_club_03s.jpg	2	-1	0	0	golf_club_03s.jpg	0	0.0	0	68.19897858550391	68.2489570449543	0.0499784594503581	75617
75.717	50	38	0	0	seagull	1395	38	0	stimuli\seagull\seagull_09s.jpg	8	-1	0	0	seagull_09s.jpg	0	0.0	0	68.2989637862847	68.348962725715	0.0499989394302247	75717
75.817	50	39	0	0	inhaler	828	39	0	stimuli\inhaler\inhaler_03s.jpg	2	-1	0	0	inhaler_03s.jpg	0	0.0	0	68.3989826327379	68.4489649931347	0.0499823603968252	75817
75.917	50	40	0	0	teapot	1634	40	0	stimuli\teapot\teapot_10s.jpg	9	-1	0	0	teapot_10s.jpg	0	0.0	0	68.4989856315879	68.54895263200889	0.0499670004210202	75917
76.017	50	41	0	0	tugboat	1725	41	0	stimuli\tugboat\tugboat_11s.jpg	10	-1	0	0	tugboat_11s.jpg	0	0.0	0	68.5989869237819	68.648970259419	0.04998333563708	76017
76.117	50	42	0	0	bowler_hat	178	42	0	stimuli\bowler_hat\bowler_hat_07s.jpg	6	-1	0	0	bowler_hat_07s.jpg	0	0.0	0	68.6989933359655	68.7489742335092	0.049980897543719004	76117
76.217	50	43	0	0	arrow	38	43	0	stimuli\arrow\arrow_01b.jpg	0	-1	0	0	arrow_01b.jpg	0	0.0	0	68.79897829292901	68.8489596780928	0.0499813851638464	76217
76.317	50	44	0	0	bikini	124	44	0	stimuli\bikini\bikini_10s.jpg	9	-1	0	0	bikini_10s.jpg	0	0.0	0	68.8990049412823	68.9489821816896	0.0499772404073155	76317
76.417	50	45	0	0	tooth	1678	45	0	stimuli\tooth\tooth_03s.jpg	2	-1	0	0	tooth_03s.jpg	0	0.0	0	68.999004770616	69.0489824986435	0.0499777280274429	76417
76.517	50	46	0	0	sandcastle	1355	46	0	stimuli\sandcastle\sandcastle_12s.jpg	11	-1	0	0	sandcastle_12s.jpg	0	0.0	0	69.098990702827	69.1489698937003	0.0499791908732732	76517
76.617	50	47	0	0	mussel	1042	47	0	stimuli\mussel\mussel_08s.jpg	7	-1	0	0	mussel_08s.jpg	0	0.0	0	69.1990149130797	69.24899142206411	0.0499765089844004	76617
76.717	50	48	0	0	cucumber	457	48	0	stimuli\cucumber\cucumber_03s.jpg	2	-1	0	0	cucumber_03s.jpg	0	0.0	0	69.2989954814839	69.34899149520061	0.0499960137167363	76717
76.817	50	49	0	0	brace	186	49	0	stimuli\brace\brace_01b.jpg	0	-1	0	0	brace_01b.jpg	0	0.0	0	69.399014327937	69.4489944940578	0.0499801661208039	76817
76.917	50	50	0	0	ketchup	867	50	0	stimuli\ketchup\ketchup_10s.jpg	9	-1	0	0	ketchup_10s.jpg	0	0.0	0	69.499015376321	69.5489840834052	0.0499687070841901	76917
77.017	50	51	0	0	lectern	908	51	0	stimuli\lectern\lectern_10s.jpg	9	-1	0	0	lectern_10s.jpg	0	0.0	0	69.5990383675307	69.6490058555719	0.0499674880411476	77017
77.117	50	52	0	0	button1	230	52	0	stimuli\button1\button1_12s.jpg	11	-1	0	0	button1_12s.jpg	0	0.0	0	69.6990201549852	69.7489849611156	0.049964806130446994	77117
77.217	50	53	0	0	sandbag	1353	53	0	stimuli\sandbag\sandbag_12s.jpg	11	-1	0	0	sandbag_12s.jpg	0	0.0	0	69.79898560720899	69.848990398059	0.0500047908499255	77217
77.317	50	54	0	0	keg	866	54	0	stimuli\keg\keg_10s.jpg	9	-1	0	0	keg_10s.jpg	0	0.0	0	69.8990256650723	69.9490050997629	0.0499794346906128	77317
77.417	50	55	0	0	carriage	276	55	0	stimuli\carriage\carriage_12s.jpg	11	-1	0	0	carriage_12s.jpg	0	0.0	0	69.9990101344229	70.04900956147321	0.0499994270503521	77417
77.517	50	56	0	0	pancake	1104	56	0	stimuli\pancake\pancake_02n.jpg	1	-1	0	0	pancake_02n.jpg	0	0.0	0	70.0990141085131	70.14901402317629	0.0499999146632035	77517
77.617	50	57	0	0	freezer	640	57	0	stimuli\freezer\freezer_06s.jpg	5	-1	0	0	freezer_06s.jpg	0	0.0	0	70.199068063499	70.2489950792005	0.0499270157015417	77617
77.717	50	58	0	0	radiator	1272	58	0	stimuli\radiator\radiator_07s.jpg	6	-1	0	0	radiator_07s.jpg	0	0.0	0	70.2990218128834	70.349016119937	0.0499943070535664	77717
77.817	50	59	0	0	wooden_leg	1834	59	0	stimuli\wooden_leg\wooden_leg_03s.jpg	2	-1	0	0	wooden_leg_03s.jpg	0	0.0	0	70.39904407267021	70.4490215568876	0.0499774842173792	77817
77.917	50	60	0	0	chipmunk	334	60	0	stimuli\chipmunk\chipmunk_02n.jpg	1	-1	0	0	chipmunk_02n.jpg	0	0.0	0	70.49902464107441	70.5490050509979	0.0499804099235917	77917
78.017	50	61	0	0	shopping_basket	1427	61	0	stimuli\shopping_basket\shopping_basket_05s.jpg	4	-1	0	0	shopping_basket_05s.jpg	0	0.0	0	70.5990432437175	70.6490287736378	0.0499855299203773	78017
78.117	50	62	0	0	bear	105	62	0	stimuli\bear\bear_02s.jpg	1	-1	0	0	bear_02s.jpg	0	0.0	0	70.6990713549239	70.7490115363253	0.0499401814013254	78117
78.217	50	63	0	0	pedal	1136	63	0	stimuli\pedal\pedal_07s.jpg	6	-1	0	0	pedal_07s.jpg	0	0.0	0	70.799050460475	70.8490155104155	0.0499650499405107	78217
78.317	50	64	0	0	clarinet	350	64	0	stimuli\clarinet\clarinet_07n.jpg	6	-1	0	0	clarinet_07n.jpg	0	0.0	0	70.8990517526618	70.9490350882988	0.04998333563708	78317
78.417	50	65	0	0	mulch	1038	65	0	stimuli\mulch\mulch_03s.jpg	2	-1	0	0	mulch_03s.jpg	0	0.0	0	70.9990367096325	71.04903540525271	0.049998695620160995	78417
78.517	50	66	0	0	toilet	1670	66	0	stimuli\toilet\toilet_01b.jpg	0	-1	0	0	toilet_01b.jpg	0	0.0	0	71.09906043227241	71.1490267012632	0.0499662689908291	78517
78.617	50	67	0	0	bottle_opener	171	67	0	stimuli\bottle_opener\bottle_opener_06s.jpg	5	-1	0	0	bottle_opener_06s.jpg	0	0.0	0	71.199052947326	71.24903750201341	0.0499845546873985	78617
78.717	50	68	0	0	ice_pack	820	68	0	stimuli\ice_pack\ice_pack_06s.jpg	5	-1	0	0	ice_pack_06s.jpg	0	0.0	0	71.29904229286329	71.3490390380102	0.0499967451469274	78717
78.817	50	69	0	0	prune	1244	69	0	stimuli\prune\prune_05s.jpg	4	-1	0	0	prune_05s.jpg	0	0.0	0	71.3990647964602	71.4490483759	0.0499835794398678	78817
78.917	50	70	0	0	jukebox	857	70	0	stimuli\jukebox\jukebox_04s.jpg	3	-1	0	0	jukebox_04s.jpg	0	0.0	0	71.4990614562703	71.5490425976241	0.0499811413537827	78917
79.017	50	71	0	0	saxophone	1368	71	0	stimuli\saxophone\saxophone_11s.jpg	10	-1	0	0	saxophone_11s.jpg	0	0.0	0	71.599062504647	71.649044377431	0.0499818727839738	79017
79.117	50	72	0	0	pony	1220	72	0	stimuli\pony\pony_09s.jpg	8	-1	0	0	pony_09s.jpg	0	0.0	0	71.6990701358809	71.7490473762882	0.0499772404073155	79117
79.217	50	73	0	0	makeup	961	73	0	stimuli\makeup\makeup_09s.jpg	8	-1	0	0	makeup_09s.jpg	0	0.0	0	71.7990694775945	71.84903769705849	0.0499682194640627	79217
79.317	50	74	0	0	marmalade	976	74	0	stimuli\marmalade\marmalade_01b.jpg	0	-1	0	0	marmalade_01b.jpg	0	0.0	0	71.89907369549469	71.94902728640591	0.0499535909111728	79317
79.417	50	75	0	0	puddle	1247	75	0	stimuli\puddle\puddle_06s.jpg	5	-1	0	0	puddle_06s.jpg	0	0.0	0	71.99904670580871	72.0490263843094	0.0499796785006765	79417
79.517	50	76	0	0	home_plate	787	76	0	stimuli\home_plate\home_plate_06s.jpg	5	-1	0	0	home_plate_06s.jpg	0	0.0	0	72.09904629133229	72.1490627850289	0.05001649369660299	79517
79.617	50	77	0	0	pants	1108	77	0	stimuli\pants\pants_09s.jpg	8	-1	0	0	pants_09s.jpg	0	0.0	0	72.19906489398271	72.24905944484641	0.0499945508636301	79617
79.717	50	78	0	0	bamboo	62	78	0	stimuli\bamboo\bamboo_09s.jpg	8	-1	0	0	bamboo_09s.jpg	0	0.0	0	72.2990656985494	72.349046352283	0.0499806537336553	79717
79.817	50	79	0	0	rim	1312	79	0	stimuli\rim\rim_06s.jpg	5	-1	0	0	rim_06s.jpg	0	0.0	0	72.3990845450098	72.44906666159659	0.0499821165867615	79817
79.917	50	80	0	0	soap	1487	80	0	stimuli\soap\soap_01b.jpg	0	-1	0	0	soap_01b.jpg	0	0.0	0	72.4990860810067	72.54905161856729	0.049965537560638006	79917
80.017	50	81	0	0	boot	169	81	0	stimuli\boot\boot_10s.jpg	9	-1	0	0	boot_10s.jpg	0	0.0	0	72.59909151795	72.64907412216421	0.0499826042141649	80017
80.117	50	82	0	0	compass	392	82	0	stimuli\compass\compass_12n.jpg	11	-1	0	0	compass_12n.jpg	0	0.0	0	72.6990674539775	72.7490439629546	0.0499765089771245	80117
80.217	50	83	0	0	tackle	1612	83	0	stimuli\tackle\tackle_02s.jpg	1	-1	0	0	tackle_02s.jpg	0	0.0	0	72.7990714280677	72.84904623038159	0.0499748023139546	80217
80.317	50	84	0	0	sardine	1359	84	0	stimuli\sardine\sardine_02s.jpg	1	-1	0	0	sardine_02s.jpg	0	0.0	0	72.8991007583245	72.94908019300779	0.0499794346833369	80317
80.417	50	85	0	0	dustpan	535	85	0	stimuli\dustpan\dustpan_01b.jpg	0	-1	0	0	dustpan_01b.jpg	0	0.0	0	72.9990974181346	73.0490778280582	0.0499804099235917	80417
80.517	50	86	0	0	gutter	729	86	0	stimuli\gutter\gutter_12s.jpg	11	-1	0	0	gutter_12s.jpg	0	0.0	0	73.0991023674651	73.14908424024179	0.0499818727766979	80517
80.617	50	87	0	0	hamster	743	87	0	stimuli\hamster\hamster_08s.jpg	7	-1	0	1	hamster_08s.jpg	0	0.0	0	73.19910853583859	73.24906870959241	0.0499601737537887	80617
80.717	50	88	0	0	sheath	1413	88	0	stimuli\sheath\sheath_02s.jpg	1	-1	0	0	sheath_02s.jpg	0	0.0	0	73.2991078775522	73.34908926271599	0.0499813851638464	80717
80.817	50	89	0	0	honeycomb	789	89	0	stimuli\honeycomb\honeycomb_06s.jpg	5	-1	0	0	honeycomb_06s.jpg	0	0.0	0	73.39910892592891	73.4490937244263	0.0499847984974622	80817
80.917	50	90	0	0	scissors	1379	90	0	stimuli\scissors\scissors_06s.jpg	5	-1	0	0	scissors_06s.jpg	1	0.341890550611424	1	73.4990977838461	73.54907746234679	0.0499796785006765	80917
81.017	50	91	0	0	fork	634	91	0	stimuli\fork\fork_10s.jpg	9	-1	0	0	fork_10s.jpg	0	0.0	0	73.5990988322301	73.64909630879991	0.0499974765698425	81017
81.117	50	92	0	0	cabinet	233	92	0	stimuli\cabinet\cabinet_09s.jpg	8	-1	0	0	cabinet_09s.jpg	0	0.0	0	73.69912255487	73.7490971133739	0.0499745585038909	81117
81.217	50	93	0	0	drawer	516	93	0	stimuli\drawer\drawer_03s.jpg	2	-1	0	0	drawer_03s.jpg	0	0.0	0	73.799103854697	73.8490847522407	0.049980897543719004	81217
81.317	50	94	0	0	dessert	481	94	0	stimuli\dessert\dessert_11s.jpg	10	-1	0	0	dessert_11s.jpg	0	0.0	0	73.89912489544079	73.94911042536108	0.0499855299203773	81317
81.417	50	95	0	0	goggles	686	95	0	stimuli\goggles\goggles_04s.jpg	3	-1	0	0	goggles_04s.jpg	0	0.0	0	73.999128869531	74.04910830422159	0.0499794346906128	81417
81.517	50	96	0	0	hand	744	96	0	stimuli\hand\hand_11s.jpg	10	-1	0	0	hand_11s.jpg	0	0.0	0	74.0991109007882	74.1490966745187	0.049985773730441	81517
81.617	50	97	0	0	hawk	760	97	0	stimuli\hawk\hawk_08s.jpg	7	-1	0	0	hawk_08s.jpg	0	0.0	0	74.19913194152471	74.24911527716179	0.04998333563708	81617
81.717	50	98	0	0	nail_clippers	1047	98	0	stimuli\nail_clippers\nail_clippers_12s.jpg	11	-1	0	0	nail_clippers_12s.jpg	0	0.0	0	74.2991164108753	74.3491143750725	0.0499979641972459	81717
81.817	50	99	0	0	piglet	1173	99	0	stimuli\piglet\piglet_03s.jpg	2	-1	0	0	piglet_03s.jpg	0	0.0	0	74.3991364763788	74.4491176177326	0.0499811413537827	81817
81.917	50	100	0	0	wreck	1840	100	0	stimuli\wreck\wreck_02s.jpg	1	-1	0	0	wreck_02s.jpg	0	0.0	0	74.49912289620259	74.5491162280159	0.0499933318133117	81917
82.017	50	101	0	0	strainer	1566	101	0	stimuli\strainer\strainer_02s.jpg	1	-1	0	0	strainer_02s.jpg	0	0.0	0	74.59912857695599	74.6491077678365	0.0499791908805491	82017
82.117	50	102	0	0	motherboard	1024	102	0	stimuli\motherboard\motherboard_03s.jpg	2	-1	0	0	motherboard_03s.jpg	0	0.0	0	74.6991466919862	74.7491244200137	0.0499777280274429	82117
82.217	50	103	0	0	coal	367	103	0	stimuli\coal\coal_06s.jpg	5	-1	0	0	coal_06s.jpg	0	0.0	0	74.7991445708467	74.84912644363071	0.0499818727839738	82217
82.317	50	104	0	0	baklava	57	104	0	stimuli\baklava\baklava_11s.jpg	10	-1	0	0	baklava_11s.jpg	0	0.0	0	74.89913586685729	74.949132855807	0.0499969889497152	82317
82.417	50	105	0	0	hip	780	105	0	stimuli\hip\hip_07s.jpg	6	-1	0	0	hip_07s.jpg	0	0.0	0	74.99914837427059	75.0491168375447	0.0499684632741264	82417
82.517	50	106	0	0	torpedo	1684	106	0	stimuli\torpedo\torpedo_12s.jpg	11	-1	0	0	torpedo_12s.jpg	0	0.0	0	75.0991367445677	75.1491178859214	0.0499811413537827	82517
82.617	50	107	0	0	knitting	880	107	0	stimuli\knitting\knitting_03s.jpg	2	-1	0	0	knitting_03s.jpg	0	0.0	0	75.1991541281677	75.2491367323746	0.0499826042068889	82617
82.717	50	108	0	0	bandage	66	108	0	stimuli\bandage\bandage_02s.jpg	1	-1	0	0	bandage_02s.jpg	0	0.0	0	75.2991605403513	75.349141437895	0.049980897543719004	82717
82.817	50	109	0	0	noose	1062	109	0	stimuli\noose\noose_12s.jpg	11	-1	0	0	noose_12s.jpg	0	0.0	0	75.39916012587491	75.4491176177326	0.04995749185764	82817
82.917	50	110	0	0	badge	52	110	0	stimuli\badge\badge_11s.jpg	10	-1	0	0	badge_11s.jpg	0	0.0	0	75.4991411818992	75.5491198851596	0.0499787032604218	82917
83.017	50	111	0	0	crystal2	454	111	0	stimuli\crystal2\crystal2_11s.jpg	10	-1	0	0	crystal2_11s.jpg	0	0.0	0	75.5991414988457	75.64915506683609	0.0500135679903906	83017
83.117	50	112	0	0	scoreboard	1383	112	0	stimuli\scoreboard\scoreboard_02s.jpg	1	-1	0	0	scoreboard_02s.jpg	0	0.0	0	75.6991691224393	75.7491344161899	0.0499652937505743	83117
83.217	50	113	0	0	kite	874	113	0	stimuli\kite\kite_11n.jpg	10	-1	0	0	kite_11n.jpg	0	0.0	0	75.79917041462609	75.84915131216991	0.049980897543719004	83217
83.317	50	114	0	0	bathmat	89	114	0	stimuli\bathmat\bathmat_07s.jpg	6	-1	0	0	bathmat_07s.jpg	0	0.0	0	75.8991507392202	75.94913505009029	0.0499843108700588	83317
83.417	50	115	0	0	hookah	795	115	0	stimuli\hookah\hookah_08s.jpg	7	-1	0	0	hookah_08s.jpg	0	0.0	0	75.99915398188021	76.0491319537177	0.0499779718375066	83417
83.517	50	116	0	0	corset	418	116	0	stimuli\corset\corset_09s.jpg	8	-1	0	0	corset_09s.jpg	0	0.0	0	76.09917867976041	76.1491398287544	0.0499611489940435	83517
83.617	50	117	0	0	suit	1580	117	0	stimuli\suit\suit_06s.jpg	5	-1	0	0	suit_06s.jpg	0	0.0	0	76.199163392921	76.2491420961815	0.0499787032604218	83617
83.717	50	118	0	0	propeller	1243	118	0	stimuli\propeller\propeller_08s.jpg	7	-1	0	0	propeller_08s.jpg	0	0.0	0	76.2991646851078	76.34915826073849	0.0499935756306513	83717
83.817	50	119	0	0	buckle	210	119	0	stimuli\buckle\buckle_02s.jpg	1	-1	0	0	buckle_02s.jpg	0	0.0	0	76.3991659772946	76.4491485815088	0.0499826042141649	83817
83.917	50	120	0	0	station_wagon	1542	120	0	stimuli\station_wagon\station_wagon_02s.jpg	1	-1	0	0	station_wagon_02s.jpg	0	0.0	0	76.49917068281499	76.5491693784352	0.049998695620160995	83917
84.017	50	121	0	0	patty	1126	121	0	stimuli\patty\patty_01b.jpg	0	-1	0	0	patty_01b.jpg	0	0.0	0	76.59917636357571	76.6491774972819	0.05000113370624599	84017
84.117	50	122	0	0	crumb	451	122	0	stimuli\crumb\crumb_11s.jpg	10	-1	0	0	crumb_11s.jpg	0	0.0	0	76.69919252812541	76.7491783018559	0.049985773730441	84117
84.217	50	123	0	0	cloud	364	123	0	stimuli\cloud\cloud_08s.jpg	7	-1	0	0	cloud_08s.jpg	0	0.0	0	76.7991967460257	76.8491800816628	0.04998333563708	84217
84.317	50	124	0	0	bolt	159	124	0	stimuli\bolt\bolt_12s.jpg	11	-1	0	0	bolt_12s.jpg	0	0.0	0	76.89920047630591	76.9491813738496	0.049980897543719004	84317
84.417	50	125	0	0	shoehorn	1425	125	0	stimuli\shoehorn\shoehorn_07s.jpg	6	-1	0	0	shoehorn_07s.jpg	0	0.0	0	76.99920030563949	77.04918144699329	0.0499811413537827	84417
84.517	50	126	0	0	espresso	560	126	0	stimuli\espresso\espresso_07s.jpg	6	-1	0	0	espresso_07s.jpg	0	0.0	0	77.09919111403	77.1491856648936	0.0499945508636301	84517
84.617	50	127	0	0	barnacle	75	127	0	stimuli\barnacle\barnacle_06n.jpg	5	-1	0	0	barnacle_06n.jpg	0	0.0	0	77.1992092290602	77.2491874447005	0.0499782156402944	84617
84.717	50	128	0	0	ladle	887	128	0	stimuli\ladle\ladle_06s.jpg	5	-1	0	0	ladle_06s.jpg	0	0.0	0	77.2991936984108	77.3491663064415	0.0499726080306573	84717
84.817	50	129	0	0	eyedropper	566	129	0	stimuli\eyedropper\eyedropper_03s.jpg	2	-1	0	0	eyedropper_03s.jpg	0	0.0	0	77.39921766486079	77.449195636691	0.0499779718302307	84817
84.917	50	130	0	0	mosquito	1020	130	0	stimuli\mosquito\mosquito_08s.jpg	7	-1	0	0	mosquito_08s.jpg	0	0.0	0	77.4992162751441	77.5491949784118	0.0499787032676977	84917
85.017	50	131	0	0	grapevine	704	131	0	stimuli\grapevine\grapevine_02s.jpg	1	-1	0	0	grapevine_02s.jpg	0	0.0	0	77.59920220735509	77.6491896877487	0.0499874803936109	85017
85.117	50	132	0	0	pothole	1233	132	0	stimuli\pothole\pothole_05s.jpg	4	-1	0	0	pothole_05s.jpg	0	0.0	0	77.6992242233318	77.7492041456353	0.0499799223034643	85117
85.217	50	133	0	0	revolver	1304	133	0	stimuli\revolver\revolver_11s.jpg	10	-1	0	0	revolver_11s.jpg	0	0.0	0	77.7992084488724	77.8492132397223	0.0500047908499255	85217
85.317	50	134	0	0	snowsuit	1486	134	0	stimuli\snowsuit\snowsuit_08s.jpg	7	-1	0	0	snowsuit_08s.jpg	0	0.0	0	77.8992241258093	77.9492077052491	0.0499835794398678	85317
85.417	50	135	0	0	beard	106	135	0	stimuli\beard\beard_05s.jpg	4	-1	0	0	beard_05s.jpg	0	0.0	0	77.9992271246592	78.04920972886609	0.0499826042068889	85417
85.517	50	136	0	0	navel	1052	136	0	stimuli\navel\navel_01b.jpg	0	-1	0	0	navel_01b.jpg	0	0.0	0	78.0992323177998	78.1492129715334	0.0499806537336553	85517
85.617	50	137	0	0	lock	940	137	0	stimuli\lock\lock_07s.jpg	6	-1	0	0	lock_07s.jpg	0	0.0	0	78.1992343414167	78.2491981723069	0.0499638308901922	85617
85.717	50	138	0	0	harness	754	138	0	stimuli\harness\harness_11s.jpg	10	-1	0	0	harness_11s.jpg	0	0.0	0	78.2992217364736	78.3492160435271	0.0499943070535664	85717
85.817	50	139	0	0	coyote	427	139	0	stimuli\coyote\coyote_04s.jpg	3	-1	0	0	coyote_04s.jpg	0	0.0	0	78.39923936388371	78.4492183109542	0.0499789470704854	85817
85.917	50	140	0	0	wineglass	1826	140	0	stimuli\wineglass\wineglass_10s.jpg	9	-1	0	0	wineglass_10s.jpg	0	0.0	0	78.49923943702741	78.5492057060183	0.0499662689908291	85917
86.017	50	141	0	0	fern	577	141	0	stimuli\fern\fern_04n.jpg	3	-1	0	0	fern_04n.jpg	0	0.0	0	78.5992699863273	78.6492240648513	0.0499540785240242	86017
86.117	50	142	0	0	lion	933	142	0	stimuli\lion\lion_09s.jpg	8	-1	0	0	lion_09s.jpg	0	0.0	0	78.6992464099749	78.7492273075186	0.049980897543719004	86117
86.217	50	143	0	0	marker	975	143	0	stimuli\marker\marker_06s.jpg	5	-1	0	0	marker_06s.jpg	0	0.0	0	78.7992513592981	78.84923152541892	0.0499801661208039	86217
86.317	50	144	0	0	watering_can	1792	144	0	stimuli\watering_can\watering_can_06s.jpg	5	-1	0	0	watering_can_06s.jpg	0	0.0	0	78.8992507010116	78.9492320861755	0.0499813851638464	86317
86.417	50	145	0	0	mattress	985	145	0	stimuli\mattress\mattress_03s.jpg	2	-1	0	1	mattress_03s.jpg	0	0.0	0	78.9992519932057	79.04921850599929	0.0499665127936169	86417
86.517	50	146	0	0	dishwasher	491	146	0	stimuli\dishwasher\dishwasher_04s.jpg	3	-1	0	0	dishwasher_04s.jpg	0	0.0	0	79.099256454916	79.1492373524597	0.049980897543719004	86517
86.617	50	147	0	0	cigar	343	147	0	stimuli\cigar\cigar_05n.jpg	4	-1	0	0	cigar_05n.jpg	0	0.0	0	79.199259453766	79.24922182181041	0.0499623680443619	86617
86.717	50	148	0	0	macadamia	951	148	0	stimuli\macadamia\macadamia_11s.jpg	10	-1	0	0	macadamia_11s.jpg	0	0.0	0	79.2992626964333	79.3492433501669	0.0499806537336553	86717
86.817	50	149	0	0	pastry	1124	149	0	stimuli\pastry\pastry_09s.jpg	8	-1	0	0	pastry_09s.jpg	0	0.0	0	79.39926715813641	79.4492448861638	0.0499777280274429	86817
86.917	50	150	0	0	handbrake	745	150	0	stimuli\handbrake\handbrake_05s.jpg	4	-1	0	0	handbrake_05s.jpg	1	0.500174445522134	1	79.4992684503304	79.5492295993245	0.0499611489940435	86917
87.017	50	151	0	0	cockatoo	372	151	0	stimuli\cockatoo\cockatoo_03s.jpg	2	-1	0	0	cockatoo_03s.jpg	0	0.0	0	79.5992692548971	79.6492506400609	0.0499813851638464	87017
87.117	50	152	0	0	collar	387	152	0	stimuli\collar\collar_07s.jpg	6	-1	0	0	collar_07s.jpg	0	0.0	0	79.6992746918477	79.7492536389182	0.0499789470704854	87117
87.217	50	153	0	0	straw2	1569	153	0	stimuli\straw2\straw2_09s.jpg	8	-1	0	0	straw2_09s.jpg	0	0.0	0	79.7992584297681	79.8492573691983	0.0499989394302247	87217
87.317	50	154	0	0	stair	1532	154	0	stimuli\stair\stair_01b.jpg	0	-1	0	0	stair_01b.jpg	0	0.0	0	79.89927776384141	79.94925744234209	0.0499796785006765	87317
87.417	50	155	0	0	cruise_ship	450	155	0	stimuli\cruise_ship\cruise_ship_04s.jpg	3	-1	0	0	cruise_ship_04s.jpg	0	0.0	0	79.999262477002	80.04924386216591	0.0499813851638464	87417
87.517	50	156	0	0	projector	1242	156	0	stimuli\projector\projector_11s.jpg	10	-1	0	0	projector_11s.jpg	0	0.0	0	80.09928083583509	80.1492649029024	0.0499840670672711	87517
87.617	50	157	0	0	almond	13	157	0	stimuli\almond\almond_01b.jpg	0	-1	0	0	almond_01b.jpg	0	0.0	0	80.199288710879	80.2492654636662	0.0499767527871882	87617
87.717	50	158	0	0	eggnog	549	158	0	stimuli\eggnog\eggnog_08s.jpg	7	-1	0	0	eggnog_08s.jpg	0	0.0	0	80.29929122211621	80.3492762644164	0.0499850423002499	87717
87.817	50	159	0	0	subway	1578	159	0	stimuli\subway\subway_09s.jpg	8	-1	0	0	subway_09s.jpg	0	0.0	0	80.399292758113	80.44927414327691	0.0499813851638464	87817
87.917	50	160	0	0	television	1641	160	0	stimuli\television\television_03s.jpg	2	-1	0	0	television_03s.jpg	0	0.0	0	80.49929234363658	80.5492547116737	0.049962368037086	87917
88.017	50	161	0	0	gramophone	699	161	0	stimuli\gramophone\gramophone_07n.jpg	6	-1	0	0	gramophone_07n.jpg	0	0.0	0	80.5992965615369	80.64927453336709	0.0499779718302307	88017
88.117	50	162	0	0	vacuum	1750	162	0	stimuli\vacuum\vacuum_03s.jpg	2	-1	0	0	vacuum_03s.jpg	0	0.0	0	80.6993010232472	80.74926412271451	0.0499630994672771	88117
88.217	50	163	0	0	diving_board	494	163	0	stimuli\diving_board\diving_board_07s.jpg	6	-1	0	0	diving_board_07s.jpg	0	0.0	0	80.7992957325841	80.84928491964091	0.0499891870567808	88217
88.317	50	164	0	0	tarp	1628	164	0	stimuli\tarp\tarp_10s.jpg	9	-1	0	0	tarp_10s.jpg	0	0.0	0	80.8993036076208	80.9492825546913	0.0499789470704854	88317
88.417	50	165	0	0	aluminum_foil	17	165	0	stimuli\aluminum_foil\aluminum_foil_09s.jpg	8	-1	0	0	aluminum_foil_09s.jpg	0	0.0	0	80.99930441219479	81.04928409069541	0.0499796785006765	88417
88.517	50	166	0	0	mouse1	1026	166	0	stimuli\mouse1\mouse1_03s.jpg	2	-1	0	0	mouse1_03s.jpg	0	0.0	0	81.0993064358117	81.1492902590689	0.0499838232572074	88517
88.617	50	167	0	0	basil	81	167	0	stimuli\basil\basil_08s.jpg	7	-1	0	0	basil_08s.jpg	0	0.0	0	81.19929285563559	81.2492898445926	0.0499969889569911	88617
88.717	50	168	0	0	door	506	168	0	stimuli\door\door_06s.jpg	5	-1	0	0	door_06s.jpg	0	0.0	0	81.2993102392356	81.3492996701025	0.0499894308668445	88717
88.817	50	169	0	0	racehorse	1267	169	0	stimuli\racehorse\racehorse_05s.jpg	4	-1	0	0	racehorse_05s.jpg	0	0.0	0	81.39929958477299	81.44929632991992	0.0499967451469274	88817
88.917	50	170	0	0	cake	237	170	0	stimuli\cake\cake_06s.jpg	5	-1	0	0	cake_06s.jpg	0	0.0	0	81.49931648075291	81.5492968906765	0.0499804099235917	88917
89.017	50	171	0	0	ham	739	171	0	stimuli\ham\ham_01b.jpg	0	-1	0	0	ham_01b.jpg	0	0.0	0	81.59930119391359	81.64928136002709	0.049980166113528006	89017
89.117	50	172	0	0	parfait	1119	172	0	stimuli\parfait\parfait_07s.jpg	6	-1	0	0	parfait_07s.jpg	0	0.0	0	81.6993244289333	81.74928606554751	0.0499616366141709	89117
89.217	50	173	0	0	mouth	1031	173	0	stimuli\mouth\mouth_05s.jpg	4	-1	0	0	mouth_05s.jpg	0	0.0	0	81.799323039224	81.8493066186711	0.0499835794471437	89217
89.317	50	174	0	0	chess_piece	317	174	0	stimuli\chess_piece\chess_piece_02s.jpg	1	-1	0	0	chess_piece_02s.jpg	0	0.0	0	81.899333352354	81.9493074232378	0.0499740708837635	89317
89.417	50	175	0	0	backgammon	48	175	0	stimuli\backgammon\backgammon_12s.jpg	11	-1	0	0	backgammon_12s.jpg	0	0.0	0	81.99933269406759	82.04931286018109	0.049980166113528006	89417
89.517	50	176	0	0	gas_mask	660	176	0	stimuli\gas_mask\gas_mask_08s.jpg	7	-1	0	0	gas_mask_08s.jpg	0	0.0	0	82.0993347176845	82.1493156152283	0.049980897543719004	89517
89.617	50	177	0	0	wrap	1837	177	0	stimuli\wrap\wrap_02s.jpg	1	-1	0	0	wrap_02s.jpg	0	0.0	0	82.199318455605	82.2493044731455	0.0499860175405047	89617
89.717	50	178	0	0	scaffold	1369	178	0	stimuli\scaffold\scaffold_08s.jpg	7	-1	0	0	scaffold_08s.jpg	0	0.0	0	82.2993353515849	82.3493213691254	0.0499860175405047	89717
89.817	50	179	0	0	fast_food	572	179	0	stimuli\fast_food\fast_food_08s.jpg	7	-1	0	0	fast_food_08s.jpg	0	0.0	0	82.3993266475954	82.44932973178221	0.0500030841867556	89817
89.917	50	180	0	0	rice	1309	180	0	stimuli\rice\rice_03s.jpg	2	-1	0	0	rice_03s.jpg	0	0.0	0	82.49934329977259	82.549322978266	0.0499796784934006	89917
90.017	50	181	0	0	calf1	241	181	0	stimuli\calf1\calf1_08s.jpg	7	-1	0	0	calf1_08s.jpg	0	0.0	0	82.5993511748093	82.6493111047603	0.04995992995100099	90017
90.117	50	182	0	0	daisy	470	182	0	stimuli\daisy\daisy_01b.jpg	0	-1	0	0	daisy_01b.jpg	0	0.0	0	82.6993368632029	82.7493131283773	0.0499762651743367	90117
90.217	50	183	0	0	syrup	1605	183	0	stimuli\syrup\syrup_05s.jpg	4	-1	0	0	syrup_05s.jpg	0	0.0	0	82.79933571730359	82.84932271007709	0.0499869927734835	90217
90.317	50	184	0	0	orange_rind	1079	184	0	stimuli\orange_rind\orange_rind_08s.jpg	7	-1	0	0	orange_rind_08s.jpg	0	0.0	0	82.8993360342574	82.949317419414	0.0499813851565705	90317
90.417	50	185	0	0	mousepad	1028	185	0	stimuli\mousepad\mousepad_08s.jpg	7	-1	0	0	mousepad_08s.jpg	0	0.0	0	82.9993602445102	83.0493377287276	0.0499774842173792	90417
90.517	50	186	0	0	marshmallow	977	186	0	stimuli\marshmallow\marshmallow_02s.jpg	1	-1	0	0	marshmallow_02s.jpg	0	0.0	0	83.0993634871775	83.149342678058	0.0499791908805491	90517
90.617	50	187	0	0	minivan	1003	187	0	stimuli\minivan\minivan_09s.jpg	8	-1	0	0	minivan_09s.jpg	0	0.0	0	83.19936258508099	83.2493400692983	0.0499774842173792	90617
90.717	50	188	0	0	raspberry	1284	188	0	stimuli\raspberry\raspberry_02n.jpg	1	-1	0	0	raspberry_02n.jpg	0	0.0	0	83.2993614391817	83.34934428719859	0.0499828480169526	90717
90.817	50	189	0	0	gum	724	189	0	stimuli\gum\gum_12s.jpg	11	-1	0	0	gum_12s.jpg	0	0.0	0	83.39936541327191	83.4493477736687	0.0499823603968252	90817
90.917	50	190	0	0	eagle	537	190	0	stimuli\eagle\eagle_03s.jpg	2	-1	0	0	eagle_03s.jpg	0	0.0	0	83.49935475880191	83.5493327306394	0.0499779718375066	90917
91.017	50	191	0	0	seed	1401	191	0	stimuli\seed\seed_08s.jpg	7	-1	0	0	seed_08s.jpg	0	0.0	0	83.5993743366853	83.64935450280609	0.0499801661208039	91017
91.117	50	192	0	0	leg	911	192	0	stimuli\leg\leg_09s.jpg	8	-1	0	0	leg_09s.jpg	0	0.0	0	83.69937221554571	83.7493416540601	0.0499694385143812	91117
91.217	50	193	0	0	spider	1513	193	0	stimuli\spider\spider_01b.jpg	0	-1	0	0	spider_01b.jpg	0	0.0	0	83.7993803343998	83.8493578186099	0.0499774842101033	91217
91.317	50	194	0	0	wing	1827	194	0	stimuli\wing\wing_05s.jpg	4	-1	0	0	wing_05s.jpg	0	0.0	0	83.8993635847	83.9493447260538	0.0499811413537827	91317
91.417	50	195	0	0	letter_opener	919	195	0	stimuli\letter_opener\letter_opener_12s.jpg	11	-1	0	0	letter_opener_12s.jpg	0	0.0	0	83.99936390165391	84.04936430393721	0.0500004022833309	91417
91.518	50	196	0	0	firetruck	596	196	0	stimuli\firetruck\firetruck_11s.jpg	10	-1	0	0	firetruck_11s.jpg	0	0.0	0	84.09938811191391	84.1493680342173	0.0499799223034643	91518
91.617	50	197	0	0	quill	1263	197	0	stimuli\quill\quill_04s.jpg	3	-1	0	0	quill_04s.jpg	0	0.0	0	84.1993684365079	84.2493656692677	0.0499972327597789	91617
91.718	50	198	0	0	baton3	94	198	0	stimuli\baton3\baton3_08s.jpg	7	-1	0	0	baton3_08s.jpg	0	0.0	0	84.2993726544082	84.3493681805048	0.049995526096609004	91718
91.818	50	199	0	0	face	569	199	0	stimuli\face\face_06s.jpg	5	-1	0	0	face_06s.jpg	0	0.0	0	84.399396864661	84.44937142316479	0.0499745585038909	91818
91.918	50	200	0	0	giraffe	675	200	0	stimuli\giraffe\giraffe_04s.jpg	3	-1	0	0	giraffe_04s.jpg	0	0.0	0	84.4993942559013	84.5493756410651	0.0499813851638464	91918
92.018	50	201	0	0	needle	1055	201	0	stimuli\needle\needle_08s.jpg	7	-1	0	0	needle_08s.jpg	0	0.0	0	84.59939579190541	84.6493864418153	0.049990649909887	92018
92.118	50	202	0	0	rifle	1311	202	0	stimuli\rifle\rifle_05s.jpg	4	-1	0	0	rifle_05s.jpg	0	0.0	0	84.6994019602789	84.7493799321092	0.0499779718302307	92118
92.218	50	203	0	0	tuning_fork	1728	203	0	stimuli\tuning_fork\tuning_fork_11s.jpg	10	-1	0	0	tuning_fork_11s.jpg	0	0.0	0	84.79938472296641	84.8493841500094	0.0499994270430761	92218
92.318	50	204	0	0	timer	1661	204	0	stimuli\timer\timer_05s.jpg	4	-1	0	0	timer_05s.jpg	0	0.0	0	84.8994045446525	84.949383491723	0.0499789470704854	92318
92.418	50	205	0	0	sifter	1443	205	0	stimuli\sifter\sifter_11s.jpg	10	-1	0	0	sifter_11s.jpg	0	0.0	0	84.99940876255279	85.04938722201041	0.049978459457633996	92418
92.518	50	206	0	0	tape	1622	206	0	stimuli\tape\tape_05s.jpg	4	-1	0	0	tape_05s.jpg	0	0.0	0	85.0994095671267	85.1493758361175	0.0499662689908291	92518
92.618	50	207	0	0	credit_card	438	207	0	stimuli\credit_card\credit_card_12s.jpg	11	-1	0	0	credit_card_12s.jpg	0	0.0	0	85.19939549933041	85.24939565781101	0.0500001584805432	92618
92.718	50	208	0	0	spaghetti	1503	208	0	stimuli\spaghetti\spaghetti_08s.jpg	7	-1	0	0	spaghetti_08s.jpg	0	0.0	0	85.29941556483391	85.3493942680943	0.0499787032604218	92718
92.818	50	209	0	0	file1	583	209	0	stimuli\file1\file1_01b.jpg	0	-1	0	0	file1_01b.jpg	0	0.0	0	85.3994246589209	85.4493965355214	0.0499718766004662	92818
92.918	50	210	0	0	nut	1066	210	0	stimuli\nut\nut_08s.jpg	7	-1	0	0	nut_08s.jpg	0	0.0	0	85.49940254542159	85.5493834429653	0.049980897543719004	92918
93.018	50	211	0	0	drum	522	211	0	stimuli\drum\drum_09s.jpg	8	-1	0	0	drum_09s.jpg	0	0.0	0	85.599423342348	85.64940570275209	0.0499823604041012	93018
93.118	50	212	0	0	balance_beam	58	212	0	stimuli\balance_beam\balance_beam_01b.jpg	0	-1	0	0	balance_beam_01b.jpg	0	0.0	0	85.6994239031119	85.7493896844826	0.0499657813707017	93118
93.218	50	213	0	0	seatbelt	1399	213	0	stimuli\seatbelt\seatbelt_12s.jpg	11	-1	0	0	seatbelt_12s.jpg	0	0.0	0	85.7994266581518	85.8494107252191	0.0499840670672711	93218
93.318	50	214	0	0	airbag	7	214	0	stimuli\airbag\airbag_08s.jpg	7	-1	0	0	airbag_08s.jpg	0	0.0	0	85.899429413199	85.94940836026942	0.0499789470704854	93318
93.418	50	215	0	0	ship	1421	215	0	stimuli\ship\ship_02s.jpg	1	-1	0	0	ship_02s.jpg	0	0.0	0	85.999432655859	86.049398437237	0.0499657813779777	93418
93.518	50	216	0	0	bagel	55	216	0	stimuli\bagel\bagel_04s.jpg	3	-1	0	0	bagel_04s.jpg	0	0.0	0	86.0994205385432	86.149401679897	0.0499811413537827	93518
93.618	50	217	0	0	car_seat	269	217	0	stimuli\car_seat\car_seat_09s.jpg	8	-1	0	0	car_seat_09s.jpg	0	0.0	0	86.19941768597349	86.2493995587574	0.0499818727839738	93618
93.718	50	218	0	0	pencil	1142	218	0	stimuli\pencil\pencil_12n.jpg	11	-1	0	0	pencil_12n.jpg	0	0.0	0	86.29944018957029	86.3494193804509	0.0499791908805491	93718
93.818	50	219	0	0	eclair	544	219	0	stimuli\eclair\eclair_12s.jpg	11	-1	0	0	eclair_12s.jpg	0	0.0	0	86.39944538270359	86.44940653169759	0.0499611489940435	93818
93.918	50	220	0	0	kale	860	220	0	stimuli\kale\kale_06s.jpg	5	-1	0	0	kale_06s.jpg	0	0.0	0	86.49944472442441	86.549410018175	0.0499652937505743	93918
94.018	50	221	0	0	cassette	283	221	0	stimuli\cassette\cassette_09s.jpg	8	-1	0	0	cassette_09s.jpg	0	0.0	0	86.59944918612749	86.64942910843821	0.0499799223107402	94018
94.118	50	222	0	0	toucan	1690	222	0	stimuli\toucan\toucan_01b.jpg	0	-1	0	0	toucan_01b.jpg	0	0.0	0	86.6994531602177	86.74943235109819	0.0499791908805491	94118
94.218	50	223	0	0	corkboard	410	223	0	stimuli\corkboard\corkboard_07s.jpg	6	-1	0	0	corkboard_07s.jpg	0	0.0	0	86.7994534771715	86.8494351061454	0.0499816289739101	94218
94.318	50	224	0	0	lamp	891	224	0	stimuli\lamp\lamp_04s.jpg	3	-1	0	0	lamp_04s.jpg	0	0.0	0	86.89945891412208	86.9494356669093	0.0499767527871882	94318
94.418	50	225	0	0	mango	966	225	0	stimuli\mango\mango_09s.jpg	8	-1	0	0	mango_09s.jpg	0	0.0	0	86.99945581774229	87.0494376905262	0.0499818727839738	94418
94.518	50	226	0	0	wine_bottle	1824	226	0	stimuli\wine_bottle\wine_bottle_12s.jpg	11	-1	0	0	wine_bottle_12s.jpg	0	0.0	0	87.09945954802241	87.14944117699629	0.0499816289739101	94518
94.618	50	227	0	0	penholder	1146	227	0	stimuli\penholder\penholder_08s.jpg	7	-1	0	0	penholder_08s.jpg	0	0.0	0	87.1994457240362	87.2494434444234	0.0499977203871822	94618
94.718	50	228	0	0	pickle	1167	228	0	stimuli\pickle\pickle_06n.jpg	5	-1	0	0	pickle_06n.jpg	0	0.0	0	87.29946432668659	87.3494471747035	0.0499828480169526	94718
94.818	50	229	0	0	raincoat	1279	229	0	stimuli\raincoat\raincoat_11s.jpg	10	-1	0	0	raincoat_11s.jpg	0	0.0	0	87.39946854458691	87.4494504173636	0.0499818727766979	94818
94.918	50	230	0	0	slug	1472	230	0	stimuli\slug\slug_02s.jpg	1	-1	0	0	slug_02s.jpg	0	0.0	0	87.49945374536041	87.5494507343174	0.0499969889569911	94918
95.018	50	231	0	0	duct_tape	528	231	0	stimuli\duct_tape\duct_tape_09s.jpg	8	-1	0	0	duct_tape_09s.jpg	0	0.0	0	87.59947990609359	87.649456171268	0.0499762651743367	95018
95.118	50	232	0	0	stir_fry	1557	232	0	stimuli\stir_fry\stir_fry_07s.jpg	6	-1	0	0	stir_fry_07s.jpg	0	0.0	0	87.69945949926479	87.7494542939312	0.0499947946664179	95118
95.218	50	233	0	0	baseball_glove	80	233	0	stimuli\baseball_glove\baseball_glove_05s.jpg	4	-1	0	0	baseball_glove_05s.jpg	0	0.0	0	87.79945542764472	87.84946387563829	0.0500084479936049	95218
95.318	50	234	0	0	juicer1	855	234	0	stimuli\juicer1\juicer1_06s.jpg	5	-1	0	0	juicer1_06s.jpg	0	0.0	0	87.89948329504841	87.9494459068956	0.0499626118471497	95318
95.418	50	235	0	0	knot	883	235	0	stimuli\knot\knot_10s.jpg	9	-1	0	0	knot_10s.jpg	0	0.0	0	87.9994811739016	88.0494515876489	0.04997041374736	95418
95.518	50	236	0	0	pocket	1205	236	0	stimuli\pocket\pocket_02s.jpg	1	-1	0	0	pocket_02s.jpg	0	0.0	0	88.0994853918019	88.1494704341094	0.0499850423075259	95518
95.618	50	237	0	0	braid	190	237	0	stimuli\braid\braid_05s.jpg	4	-1	0	0	braid_05s.jpg	0	0.0	0	88.19947181162571	88.24945246536659	0.0499806537409313	95618
95.718	50	238	0	0	whoopee_cushion	1814	238	0	stimuli\whoopee_cushion\whoopee_cushion_02s.jpg	1	-1	0	0	whoopee_cushion_02s.jpg	0	0.0	0	88.2994923647493	88.3494742375333	0.0499818727839738	95718
95.818	50	239	0	0	cord	407	239	0	stimuli\cord\cord_08s.jpg	7	-1	0	0	cord_08s.jpg	0	0.0	0	88.3994963388395	88.4494757735301	0.0499794346906128	95818
95.918	50	240	0	0	pistachio	1188	240	0	stimuli\pistachio\pistachio_01b.jpg	0	-1	0	0	pistachio_01b.jpg	0	0.0	0	88.49949324245969	88.5494785285773	0.0499852861175896	95918
96.018	50	241	0	0	pelican	1140	241	0	stimuli\pelican\pelican_11s.jpg	10	-1	0	0	pelican_11s.jpg	0	0.0	0	88.5995008736936	88.64946567982409	0.049964806130446994	96018
96.118	50	242	0	0	gravy	711	242	0	stimuli\gravy\gravy_07s.jpg	6	-1	0	0	gravy_07s.jpg	0	0.0	0	88.69948558685431	88.7494647777348	0.0499791908805491	96118
96.218	50	243	0	0	trolley	1715	243	0	stimuli\trolley\trolley_04s.jpg	3	-1	0	0	trolley_04s.jpg	0	0.0	0	88.79949394951109	88.8494621689752	0.0499682194640627	96218
96.318	50	244	0	0	rhinoceros	1306	244	0	stimuli\rhinoceros\rhinoceros_03s.jpg	2	-1	0	0	rhinoceros_03s.jpg	0	0.0	0	88.89949012170109	88.94946614306541	0.04997602136427299	96318
96.418	50	245	0	0	spark_plug	1506	245	0	stimuli\spark_plug\spark_plug_01b.jpg	0	-1	0	0	spark_plug_01b.jpg	0	0.0	0	88.9994887319917	89.0494701171556	0.0499813851638464	96418
96.518	50	246	0	0	honey	788	246	0	stimuli\honey\honey_09s.jpg	8	-1	0	0	honey_09s.jpg	0	0.0	0	89.0995144051049	89.14949359598542	0.0499791908805491	96518
96.618	50	247	0	0	pepperoni	1153	247	0	stimuli\pepperoni\pepperoni_05s.jpg	4	-1	0	0	pepperoni_05s.jpg	0	0.0	0	89.1995135030156	89.249493181509	0.0499796784934006	96618
96.718	50	248	0	0	chimney	329	248	0	stimuli\chimney\chimney_02s.jpg	1	-1	0	0	chimney_02s.jpg	0	0.0	0	89.2994974847461	89.34950325083629	0.0500057660901803	96718
96.818	50	249	0	0	arch	35	249	0	stimuli\arch\arch_06s.jpg	5	-1	0	0	arch_06s.jpg	0	0.0	0	89.3995175502423	89.4494994230263	0.0499818727839738	96818
96.918	50	250	0	0	shaving_cream	1410	250	0	stimuli\shaving_cream\shaving_cream_02s.jpg	1	-1	0	0	shaving_cream_02s.jpg	0	0.0	0	89.4995076272098	89.54951875709959	0.0500111298897536	96918
97.018	50	251	0	0	ski_lift	1454	251	0	stimuli\ski_lift\ski_lift_04s.jpg	3	-1	0	0	ski_lift_04s.jpg	0	0.0	0	89.59952939937651	89.64950663978381	0.0499772404073155	97018
97.118	50	252	0	0	chessboard	318	252	0	stimuli\chessboard\chessboard_03s.jpg	2	-1	0	0	chessboard_03s.jpg	0	0.0	0	89.6995094801605	89.74953109384658	0.0500216136861127	97118
97.218	50	253	0	0	banana	63	253	0	stimuli\banana\banana_09s.jpg	8	-1	0	0	banana_09s.jpg	0	0.0	0	89.7995417361235	89.8495101993976	0.0499684632741264	97218
97.318	50	254	0	0	barrette	77	254	0	stimuli\barrette\barrette_03s.jpg	2	-1	0	0	barrette_03s.jpg	0	0.0	0	89.8995332759441	89.94949540017109	0.0499621242270223	97318
97.418	50	255	0	0	blueberry	149	255	0	stimuli\blueberry\blueberry_01b.jpg	0	-1	0	0	blueberry_01b.jpg	0	0.0	0	89.99951774529471	90.0495130275813	0.0499952822865453	97418
97.518	50	256	0	0	jewelry	850	256	0	stimuli\jewelry\jewelry_05s.jpg	4	-1	0	0	jewelry_05s.jpg	0	0.0	0	90.0995404926944	90.1495250473818	0.0499845546873985	97518
97.618	50	257	0	0	padlock	1095	257	0	stimuli\padlock\padlock_06s.jpg	5	-1	0	0	padlock_06s.jpg	0	0.0	0	90.19954032202801	90.24951926909849	0.0499789470704854	97618
97.718	50	258	0	0	cork	409	258	0	stimuli\cork\cork_12s.jpg	11	-1	0	0	cork_12s.jpg	0	0.0	0	90.29954234564501	90.34952373080891	0.0499813851638464	97718
97.818	50	259	0	0	highchair	777	259	0	stimuli\highchair\highchair_11s.jpg	10	-1	0	0	highchair_11s.jpg	0	0.0	0	90.3995333978455	90.44951088206291	0.0499774842173792	97818
97.918	50	260	0	0	broccoli	201	260	0	stimuli\broccoli\broccoli_09s.jpg	8	-1	0	0	broccoli_09s.jpg	0	0.0	0	90.49954931859249	90.5495175380565	0.0499682194640627	97918
98.018	50	261	0	0	sword	1602	261	0	stimuli\sword\sword_03s.jpg	2	-1	0	0	sword_03s.jpg	0	0.0	0	90.5995350069861	90.64953077690011	0.0499957699139486	98018
98.118	50	262	0	0	guitar	723	262	0	stimuli\guitar\guitar_10s.jpg	9	-1	0	0	guitar_10s.jpg	0	0.0	0	90.6995514153532	90.74951646529371	0.0499650499405107	98118
98.218	50	263	0	0	coleslaw	386	263	0	stimuli\coleslaw\coleslaw_12s.jpg	11	-1	0	0	coleslaw_12s.jpg	0	0.0	0	90.7995529513501	90.84955115935009	0.0499982080000336	98218
98.318	50	264	0	0	frame	639	264	0	stimuli\frame\frame_04s.jpg	3	-1	0	0	frame_04s.jpg	0	0.0	0	90.8995583882934	90.94953928584441	0.049980897550995	98318
98.418	50	265	0	0	elephant	554	265	0	stimuli\elephant\elephant_12n.jpg	11	-1	0	0	elephant_12n.jpg	0	0.0	0	90.9995477338307	91.0495408218412	0.0499930880105239	98418
98.518	50	266	0	0	shawl	1411	266	0	stimuli\shawl\shawl_09s.jpg	8	-1	0	0	shawl_09s.jpg	0	0.0	0	91.0995704812376	91.1495274854751	0.0499570042375126	98518
98.618	50	267	0	0	window	1818	267	0	stimuli\window\window_06s.jpg	5	-1	0	0	window_06s.jpg	0	0.0	0	91.1995659220047	91.2495451128852	0.0499791908805491	98618
98.718	50	268	0	0	pantsuit	1109	268	0	stimuli\pantsuit\pantsuit_09s.jpg	8	-1	0	0	pantsuit_09s.jpg	0	0.0	0	91.299570139905	91.3495515250688	0.0499813851638464	98718
98.818	50	269	0	0	mistletoe	1007	269	0	stimuli\mistletoe\mistletoe_04s.jpg	3	-1	0	0	mistletoe_04s.jpg	0	0.0	0	91.3995758206584	91.449534531559	0.0499587109006825	98818
98.918	50	270	0	0	radish	1274	270	0	stimuli\radish\radish_02s.jpg	1	-1	0	0	radish_02s.jpg	0	0.0	0	91.49955590144242	91.5495521589692	0.0499962575268	98918
99.018	50	271	0	0	pulpit	1251	271	0	stimuli\pulpit\pulpit_04s.jpg	3	-1	0	0	pulpit_04s.jpg	0	0.0	0	91.59957401647259	91.64954443021271	0.049970413740084006	99018
99.118	50	272	0	0	candy	255	272	0	stimuli\candy\candy_04s.jpg	3	-1	0	0	candy_04s.jpg	0	0.0	0	91.69956189914959	91.74955718144341	0.0499952822938212	99118
99.218	50	273	0	0	crayfish	434	273	0	stimuli\crayfish\crayfish_03s.jpg	2	-1	0	0	crayfish_03s.jpg	0	0.0	0	91.79957903893958	91.84956334981692	0.0499843108773348	99218
99.318	50	274	0	0	paddle	1094	274	0	stimuli\paddle\paddle_12s.jpg	11	-1	0	0	paddle_12s.jpg	0	0.0	0	91.89958350064991	91.94956415438361	0.0499806537336553	99318
99.418	50	275	0	0	porcupine	1226	275	0	stimuli\porcupine\porcupine_01b.jpg	0	-1	0	0	porcupine_01b.jpg	0	0.0	0	91.9995957642532	92.04954813611401	0.0499523718608543	99418
99.518	50	276	0	0	shower_cap	1434	276	0	stimuli\shower_cap\shower_cap_02s.jpg	1	-1	0	0	shower_cap_02s.jpg	0	0.0	0	92.09958608503081	92.1495867311241	0.0500006460933946	99518
99.618	50	277	0	0	screw	1390	277	0	stimuli\screw\screw_10s.jpg	9	-1	0	0	screw_10s.jpg	0	0.0	0	92.1996117581439	92.24955462144129	0.0499428632974741	99618
99.718	50	278	0	0	hourglass	807	278	0	stimuli\hourglass\hourglass_01b.jpg	0	-1	0	0	hourglass_01b.jpg	0	0.0	0	92.2995935455911	92.34957493075491	0.0499813851638464	99718
99.818	50	279	0	0	pita	1189	279	0	stimuli\pita\pita_06s.jpg	5	-1	0	0	pita_06s.jpg	0	0.0	0	92.3995945939678	92.4495745162785	0.0499799223107402	99818
99.918	50	280	0	0	domino	503	280	0	stimuli\domino\domino_01b.jpg	0	-1	0	0	domino_01b.jpg	0	0.0	0	92.49958467093529	92.54956483704879	0.049980166113528006	99918
100.018	50	281	0	0	blowfish	146	281	0	stimuli\blowfish\blowfish_08s.jpg	7	-1	0	0	blowfish_08s.jpg	0	0.0	0	92.59960229834542	92.6495839273121	0.0499816289666342	100018
100.118	50	282	0	0	ironing_board	833	282	0	stimuli\ironing_board\ironing_board_04s.jpg	3	-1	0	0	ironing_board_04s.jpg	0	0.0	0	92.6996050533853	92.7495718099963	0.0499667566109565	100118
100.218	50	283	0	0	gurney	728	283	0	stimuli\gurney\gurney_12s.jpg	11	-1	0	0	gurney_12s.jpg	0	0.0	0	92.7996065893894	92.8495872431231	0.0499806537336553	100218
100.318	50	284	0	0	gate	662	284	0	stimuli\gate\gate_09s.jpg	8	-1	0	0	gate_09s.jpg	0	0.0	0	92.899606906336	92.9495895105501	0.0499826042141649	100318
100.418	50	285	0	0	boomerang	168	285	0	stimuli\boomerang\boomerang_05s.jpg	4	-1	0	0	boomerang_05s.jpg	0	0.0	0	92.9996111242363	93.0495927532102	0.0499816289739101	100418
100.518	50	286	0	0	seismograph	1403	286	0	stimuli\seismograph\seismograph_08s.jpg	7	-1	0	0	seismograph_08s.jpg	0	0.0	0	93.09961680499691	93.14957966065408	0.0499628556572134	100518
100.618	50	287	0	0	glove	680	287	0	stimuli\glove\glove_10s.jpg	9	-1	0	0	glove_10s.jpg	0	0.0	0	93.1996180971837	93.2495824157013	0.0499643185175955	100618
100.718	50	288	0	0	cd_player	290	288	0	stimuli\cd_player\cd_player_12s.jpg	11	-1	0	0	cd_player_12s.jpg	0	0.0	0	93.2996186579476	93.3495873650245	0.0499687070769141	100718
100.818	50	289	0	0	sunroof	1586	289	0	stimuli\sunroof\sunroof_10s.jpg	9	-1	0	0	sunroof_10s.jpg	0	0.0	0	93.39960483396129	93.4495991410149	0.0499943070535664	100818
100.918	50	290	0	0	bra	185	290	0	stimuli\bra\bra_07s.jpg	6	-1	0	0	bra_07s.jpg	0	0.0	0	93.4996222175614	93.5496011646319	0.0499789470704854	100918
101.018	50	291	0	0	snail	1476	291	0	stimuli\snail\snail_09s.jpg	8	-1	0	0	snail_09s.jpg	0	0.0	0	93.5996313116411	93.6496063577652	0.0499750461240183	101018
101.118	50	292	0	0	suspenders	1589	292	0	stimuli\suspenders\suspenders_04s.jpg	3	-1	0	0	suspenders_04s.jpg	0	0.0	0	93.6996113924251	93.7495947280622	0.04998333563708	101118
101.218	50	293	0	0	fossil	636	293	0	stimuli\fossil\fossil_03s.jpg	2	-1	0	0	fossil_03s.jpg	0	0.0	0	93.7996346274522	93.8496123554723	0.049977728020167	101218
101.318	50	294	0	0	shoe_polish	1424	294	0	stimuli\shoe_polish\shoe_polish_02s.jpg	1	-1	0	0	shoe_polish_02s.jpg	0	0.0	0	93.89963567582892	93.94961340385629	0.0499777280274429	101318
101.418	50	295	0	0	coaster	368	295	0	stimuli\coaster\coaster_07s.jpg	6	-1	0	0	coaster_07s.jpg	0	0.0	0	93.99963623659279	94.0496181093768	0.0499818727839738	101418
101.518	50	296	0	0	stilt	1555	296	0	stimuli\stilt\stilt_02s.jpg	1	-1	0	0	stilt_02s.jpg	0	0.0	0	94.09963801639971	94.14960452920059	0.0499665128008928	101518
101.618	50	297	0	0	screen2	1389	297	0	stimuli\screen2\screen2_08s.jpg	7	-1	0	0	screen2_08s.jpg	0	0.0	0	94.1996266305068	94.2496065528176	0.0499799223107402	101618
101.718	50	298	0	0	saltshaker	1350	298	0	stimuli\saltshaker\saltshaker_01b.jpg	0	-1	0	0	saltshaker_01b.jpg	0	0.0	0	94.299630604597	94.3496132088039	0.0499826042068889	101718
101.818	50	299	0	0	truck	1720	299	0	stimuli\truck\truck_02s.jpg	1	-1	0	0	truck_02s.jpg	0	0.0	0	94.39964652534401	94.4496266914575	0.049980166113528006	101818
101.918	50	300	0	0	lamppost	892	300	0	stimuli\lamppost\lamppost_06s.jpg	5	-1	0	0	lamppost_06s.jpg	0	0.0	0	94.49963538326121	94.5496313969779	0.0499960137167363	101918
102.018	50	301	0	0	handle	748	301	0	stimuli\handle\handle_04s.jpg	3	-1	0	0	handle_04s.jpg	0	0.0	0	94.5996559363775	94.6496158663285	0.04995992995100099	102018
102.118	50	302	0	0	closet	360	302	0	stimuli\closet\closet_07s.jpg	6	-1	0	0	closet_07s.jpg	0	0.0	0	94.69964040572809	94.7496366632549	0.0499962575268	102118
102.218	50	303	0	0	balloon	60	303	0	stimuli\balloon\balloon_12s.jpg	11	-1	0	0	balloon_12s.jpg	0	0.0	0	94.79965973980141	94.8496413687753	0.0499816289739101	102218
102.318	50	304	0	0	crab	428	304	0	stimuli\crab\crab_05s.jpg	4	-1	0	0	crab_05s.jpg	0	0.0	0	94.8996478662957	94.94962266860969	0.0499748023139546	102318
102.418	50	305	0	0	microscope	999	305	0	stimuli\microscope\microscope_11s.jpg	10	-1	0	0	microscope_11s.jpg	0	0.0	0	94.9996433070628	95.0496229855562	0.0499796784934006	102418
102.518	50	306	0	0	raft	1275	306	0	stimuli\raft\raft_10s.jpg	9	-1	0	0	raft_10s.jpg	0	0.0	0	95.09963582211641	95.1496337863064	0.0499979641899699	102518
102.618	50	307	0	0	weed	1802	307	0	stimuli\weed\weed_07s.jpg	6	-1	0	0	weed_07s.jpg	0	0.0	0	95.19965174286341	95.24962264422359	0.0499709013602114	102618
102.718	50	308	0	0	melon	994	308	0	stimuli\melon\melon_12s.jpg	11	-1	0	0	melon_12s.jpg	0	0.0	0	95.2996625436135	95.3496453916305	0.0499828480169526	102718
115.951	50	309	0	0	touchpad	1691	0	1	stimuli\touchpad\touchpad_07s.jpg	6	-1	1	0	touchpad_07s.jpg	0	0.0	0	108.533348351986	108.583324617153	0.0499762651670608	115951
116.051	50	310	0	0	bell	116	1	1	stimuli\bell\bell_09n.jpg	8	-1	1	0	bell_09n.jpg	0	0.0	0	108.63334037941999	108.68332030173	0.0499799223107402	116051
116.151	50	311	0	0	saw	1366	2	1	stimuli\saw\saw_12s.jpg	11	-1	1	0	saw_12s.jpg	0	0.0	0	108.733342403037	108.783326470104	0.0499840670672711	116151
116.251	50	312	0	0	polo_shirt	1216	3	1	stimuli\polo_shirt\polo_shirt_12s.jpg	11	-1	1	0	polo_shirt_12s.jpg	0	0.0	0	108.83334247618	108.88332849372101	0.0499860175405047	116251
116.351	50	313	0	0	grain	698	4	1	stimuli\grain\grain_06s.jpg	5	-1	1	0	grain_06s.jpg	0	0.0	0	108.933346694081	108.98333149257799	0.0499847984974622	116351
116.451	50	314	0	0	lip_gloss	935	5	1	stimuli\lip_gloss\lip_gloss_03s.jpg	2	-1	1	0	lip_gloss_03s.jpg	0	0.0	0	109.03335359388399	109.08333107810199	0.0499774842173792	116451
116.551	50	315	0	0	dirt_bike	488	6	1	stimuli\dirt_bike\dirt_bike_04s.jpg	3	-1	1	0	dirt_bike_04s.jpg	0	0.0	0	109.13335781178499	109.183336515045	0.0499787032604218	116551
116.651	50	316	0	0	gem	670	7	1	stimuli\gem\gem_12s.jpg	11	-1	1	0	gem_12s.jpg	0	0.0	0	109.23336178587499	109.28333829485202	0.0499765089771245	116651
116.751	50	317	0	0	breathalyzer	198	8	1	stimuli\breathalyzer\breathalyzer_09s.jpg	8	-1	1	0	breathalyzer_09s.jpg	0	0.0	0	109.333362346639	109.38333373561899	0.0499713889803388	116751
116.851	50	318	0	0	cummerbund	459	9	1	stimuli\cummerbund\cummerbund_02s.jpg	1	-1	1	0	cummerbund_02s.jpg	0	0.0	0	109.43336461406601	109.48335453255301	0.0499899184869719	116851
116.951	50	319	0	0	alpaca	15	10	1	stimuli\alpaca\alpaca_07s.jpg	6	-1	1	0	alpaca_07s.jpg	0	0.0	0	109.53336541863199	109.58333680761999	0.0499713889876148	116951
117.051	50	320	0	0	hairpin	737	11	1	stimuli\hairpin\hairpin_06s.jpg	5	-1	1	0	hairpin_06s.jpg	0	0.0	0	109.63336963653299	109.68334907122299	0.0499794346906128	117051
117.151	50	321	0	0	handprint	750	12	1	stimuli\handprint\handprint_05s.jpg	4	-1	1	0	handprint_05s.jpg	0	0.0	0	109.733376292526	109.783355239597	0.0499789470704854	117151
117.251	50	322	0	0	tongs	1674	13	1	stimuli\tongs\tongs_10s.jpg	9	-1	1	0	tongs_10s.jpg	0	0.0	0	109.83337782852301	109.883338733707	0.0499609051839798	117251
117.351	50	323	0	0	corn	412	14	1	stimuli\corn\corn_05s.jpg	4	-1	1	0	corn_05s.jpg	0	0.0	0	109.933360591211	109.983360262071	0.0499996708604158	117351
117.451	50	324	0	0	shark	1409	15	1	stimuli\shark\shark_07s.jpg	6	-1	1	1	shark_07s.jpg	0	0.0	0	110.03338016909402	110.083348876178	0.0499687070841901	117451
117.551	50	325	0	0	lab_coat	885	16	1	stimuli\lab_coat\lab_coat_03s.jpg	2	-1	1	0	lab_coat_03s.jpg	0	0.0	0	110.133381948901	110.183348705512	0.0499667566109565	117551
117.651	50	326	0	0	flagpole	606	17	1	stimuli\flagpole\flagpole_10s.jpg	9	-1	1	0	flagpole_10s.jpg	0	0.0	0	110.233384703948	110.28336584530199	0.0499811413537827	117651
117.751	50	327	0	0	turbine	1731	18	1	stimuli\turbine\turbine_03s.jpg	2	-1	1	0	turbine_03s.jpg	0	0.0	0	110.333388434228	110.383351533696	0.0499630994672771	117751
117.851	50	328	0	0	net	1057	19	1	stimuli\net\net_08s.jpg	7	-1	1	0	net_08s.jpg	0	0.0	0	110.433376804525	110.483375987766	0.0499991832402884	117851
117.951	50	329	0	0	chair	300	20	1	stimuli\chair\chair_02s.jpg	1	-1	1	0	chair_02s.jpg	1	0.5419323882815661	1	110.533393212885	110.583375085669	0.0499818727839738	117951
118.051	50	330	0	0	tortilla	1687	21	1	stimuli\tortilla\tortilla_04s.jpg	3	-1	1	0	tortilla_04s.jpg	0	0.0	0	110.633395236502	110.683376621666	0.0499813851638464	118051
118.151	50	331	0	0	shortbread	1429	22	1	stimuli\shortbread\shortbread_07s.jpg	6	-1	1	0	shortbread_07s.jpg	0	0.0	0	110.733398235359	110.783380595756	0.0499823603968252	118151
118.251	50	332	0	0	van	1752	23	1	stimuli\van\van_11s.jpg	10	-1	1	0	van_11s.jpg	0	0.0	0	110.833404403733	110.88338335080299	0.0499789470704854	118251
118.351	50	333	0	0	vase	1753	24	1	stimuli\vase\vase_11s.jpg	10	-1	1	0	vase_11s.jpg	0	0.0	0	110.933404233067	110.983388300134	0.0499840670672711	118351
118.451	50	334	0	0	motorcycle	1025	25	1	stimuli\motorcycle\motorcycle_12s.jpg	11	-1	1	0	motorcycle_12s.jpg	0	0.0	0	111.033406256684	111.08338739803699	0.0499811413537827	118451
118.551	50	335	0	0	tray	1705	26	1	stimuli\tray\tray_10s.jpg	9	-1	1	0	tray_10s.jpg	0	0.0	0	111.13340949934401	111.18338990927401	0.0499804099308676	118551
118.651	50	336	0	0	hopscotch	796	27	1	stimuli\hopscotch\hopscotch_05s.jpg	4	-1	1	0	hopscotch_05s.jpg	0	0.0	0	111.23341030391701	111.28339510240801	0.0499847984901862	118651
118.751	50	337	0	0	trailer	1697	28	1	stimuli\trailer\trailer_08s.jpg	7	-1	1	0	trailer_08s.jpg	0	0.0	0	111.333396723741	111.383377621285	0.049980897543719004	118751
118.851	50	338	0	0	spoon	1519	29	1	stimuli\spoon\spoon_05n.jpg	4	-1	1	0	spoon_05n.jpg	0	0.0	0	111.433414594962	111.483397442978	0.0499828480169526	118851
118.951	50	339	0	0	silverware	1445	30	1	stimuli\silverware\silverware_08s.jpg	7	-1	1	0	silverware_08s.jpg	0	0.0	0	111.533422226188	111.583399710406	0.0499774842173792	118951
119.051	50	340	0	0	doormat	511	31	1	stimuli\doormat\doormat_06s.jpg	5	-1	1	0	doormat_06s.jpg	0	0.0	0	111.633421324099	111.683385398799	0.0499640747002559	119051
119.151	50	341	0	0	wreath	1839	32	1	stimuli\wreath\wreath_10s.jpg	9	-1	1	0	wreath_10s.jpg	0	0.0	0	111.733427248662	111.78340448907	0.0499772404073155	119151
119.251	50	342	0	0	locker	941	33	1	stimuli\locker\locker_07s.jpg	6	-1	1	0	locker_07s.jpg	0	0.0	0	111.83340976753999	111.883391884126	0.0499821165867615	119251
119.351	50	343	0	0	bead	100	34	1	stimuli\bead\bead_05s.jpg	4	-1	1	0	bead_05s.jpg	0	0.0	0	111.93341349782	111.98341073058701	0.0499972327670548	119351
119.451	50	344	0	0	curtain	465	35	1	stimuli\curtain\curtain_09s.jpg	8	-1	1	0	curtain_09s.jpg	0	0.0	0	112.03342990618	112.083414460867	0.0499845546873985	119451
119.551	50	345	0	0	ivy	834	36	1	stimuli\ivy\ivy_10s.jpg	9	-1	1	0	ivy_10s.jpg	0	0.0	0	112.133437537414	112.18339868640801	0.0499611489940435	119551
119.651	50	346	0	0	pallet	1101	37	1	stimuli\pallet\pallet_10s.jpg	9	-1	1	0	pallet_10s.jpg	0	0.0	0	112.233436635317	112.283417289051	0.0499806537336553	119651
119.751	50	347	0	0	shoulder	1431	38	1	stimuli\shoulder\shoulder_08s.jpg	7	-1	1	0	shoulder_08s.jpg	0	0.0	0	112.333437683694	112.38340248983101	0.0499648061377229	119751
119.852	50	348	0	0	hubcap	809	39	1	stimuli\hubcap\hubcap_09s.jpg	8	-1	1	0	hubcap_09s.jpg	0	0.0	0	112.433444339687	112.483424993428	0.0499806537409313	119852
119.952	50	349	0	0	nutcracker	1067	40	1	stimuli\nutcracker\nutcracker_08s.jpg	7	-1	1	0	nutcracker_08s.jpg	0	0.0	0	112.533445144261	112.583411413252	0.0499662689908291	119952
120.052	50	350	0	0	viewfinder	1763	41	1	stimuli\viewfinder\viewfinder_01s.jpg	0	-1	1	0	viewfinder_01s.jpg	0	0.0	0	112.633431564085	112.683428065422	0.0499965013368637	120052
120.152	50	351	0	0	latch	900	42	1	stimuli\latch\latch_12s.jpg	11	-1	1	0	latch_12s.jpg	0	0.0	0	112.733446753402	112.783426431903	0.0499796785006765	120152
120.252	50	352	0	0	sarcophagus	1358	43	1	stimuli\sarcophagus\sarcophagus_07s.jpg	6	-1	1	0	sarcophagus_07s.jpg	0	0.0	0	112.833450483682	112.883432600276	0.0499821165940375	120252
120.352	50	353	0	0	beaver	107	44	1	stimuli\beaver\beaver_07s.jpg	6	-1	1	0	beaver_07s.jpg	0	0.0	0	112.933451288256	112.983433161033	0.0499818727766979	120352
120.452	50	354	0	0	bulletin_board	217	45	1	stimuli\bulletin_board\bulletin_board_05s.jpg	4	-1	1	0	bulletin_board_05s.jpg	0	0.0	0	113.03345648138901	113.083438110363	0.0499816289739101	120452
120.552	50	355	0	0	pearl	1134	46	1	stimuli\pearl\pearl_08s.jpg	7	-1	1	0	pearl_08s.jpg	0	0.0	0	113.133455823103	113.18343574541402	0.0499799223107402	120552
120.652	50	356	0	0	pie	1168	47	1	stimuli\pie\pie_03s.jpg	2	-1	1	0	pie_03s.jpg	0	0.0	0	113.23346077243299	113.283446546164	0.049985773730441	120652
120.752	50	357	0	0	seafood	1394	48	1	stimuli\seafood\seafood_08s.jpg	7	-1	1	0	seafood_08s.jpg	0	0.0	0	113.33346182081002	113.383441011691	0.0499791908805491	120752
120.852	50	358	0	0	stool	1561	49	1	stimuli\stool\stool_01b.jpg	0	-1	1	0	stool_01b.jpg	0	0.0	0	113.43346262538401	113.48344279149799	0.049980166113528006	120852
120.952	50	359	0	0	grits	717	50	1	stimuli\grits\grits_05s.jpg	4	-1	1	0	grits_05s.jpg	0	0.0	0	113.533466111854	113.583446765595	0.0499806537409313	120952
121.052	50	360	0	0	aquarium	34	51	1	stimuli\aquarium\aquarium_11s.jpg	10	-1	1	0	aquarium_11s.jpg	0	0.0	0	113.633476668794	113.683451227298	0.0499745585038909	121052
121.152	50	361	0	0	garter	659	52	1	stimuli\garter\garter_07s.jpg	6	-1	1	0	garter_07s.jpg	0	0.0	0	113.733471865751	113.78345276330201	0.049980897550995	121152
121.252	50	362	0	0	moth	1023	53	1	stimuli\moth\moth_02n.jpg	1	-1	1	0	moth_02n.jpg	0	0.0	0	113.833471695085	113.883453811679	0.0499821165940375	121252
121.352	50	363	0	0	top_hat	1682	54	1	stimuli\top_hat\top_hat_02s.jpg	1	-1	1	0	top_hat_02s.jpg	0	0.0	0	113.933476644415	113.983456322916	0.0499796785006765	121352
121.452	50	364	0	0	record	1295	55	1	stimuli\record\record_07s.jpg	6	-1	1	0	record_07s.jpg	0	0.0	0	114.033478668032	114.083457615103	0.0499789470704854	121452
121.552	50	365	0	0	football	629	56	1	stimuli\football\football_11s.jpg	10	-1	1	0	football_11s.jpg	0	0.0	0	114.133479960219	114.18346183300301	0.0499818727839738	121552
121.652	50	366	0	0	cinnamon	348	57	1	stimuli\cinnamon\cinnamon_11s.jpg	10	-1	1	0	cinnamon_11s.jpg	0	0.0	0	114.233483446696	114.283466538523	0.0499830918270163	121652
121.752	50	367	0	0	cart	278	58	1	stimuli\cart\cart_04s.jpg	3	-1	1	0	cart_04s.jpg	0	0.0	0	114.333487664597	114.38346783071	0.049980166113528006	121752
121.852	50	368	0	0	toaster_oven	1667	59	1	stimuli\toaster_oven\toaster_oven_10s.jpg	9	-1	1	0	toaster_oven_10s.jpg	0	0.0	0	114.433494808203	114.48347863146002	0.0499838232572074	121852
121.952	50	369	0	0	curb	462	60	1	stimuli\curb\curb_11s.jpg	10	-1	1	0	curb_11s.jpg	0	0.0	0	114.53349049278	114.583469439851	0.0499789470704854	121952
122.052	50	370	0	0	paper_plate	1114	61	1	stimuli\paper_plate\paper_plate_05s.jpg	4	-1	1	0	paper_plate_05s.jpg	0	0.0	0	114.633493004018	114.683472682518	0.0499796785006765	122052
122.152	50	371	0	0	carousel	275	62	1	stimuli\carousel\carousel_07s.jpg	6	-1	1	0	carousel_07s.jpg	0	0.0	0	114.733498440961	114.783477631841	0.0499791908805491	122152
122.252	50	372	0	0	drain	515	63	1	stimuli\drain\drain_06s.jpg	5	-1	1	0	drain_06s.jpg	0	0.0	0	114.833506803618	114.88348063069901	0.0499738270809758	122252
122.352	50	373	0	0	mold1	1012	64	1	stimuli\mold1\mold1_11s.jpg	10	-1	1	0	mold1_11s.jpg	0	0.0	0	114.933498831058	114.983482166695	0.04998333563708	122352
122.452	50	374	0	0	tiara	1655	65	1	stimuli\tiara\tiara_02s.jpg	1	-1	1	0	tiara_02s.jpg	0	0.0	0	115.03350524324199	115.083486140786	0.049980897543719004	122452
122.552	50	375	0	0	kneepad	878	66	1	stimuli\kneepad\kneepad_08s.jpg	7	-1	1	0	kneepad_08s.jpg	0	0.0	0	115.133507266859	115.18348670155001	0.0499794346906128	122552
122.652	50	376	0	0	handkerchief	747	67	1	stimuli\handkerchief\handkerchief_05s.jpg	4	-1	1	0	handkerchief_05s.jpg	0	0.0	0	115.23351050951901	115.283493845156	0.04998333563708	122652
122.752	50	377	0	0	file2	584	68	1	stimuli\file2\file2_03s.jpg	2	-1	1	0	file2_03s.jpg	0	0.0	0	115.333511070283	115.38349464973	0.0499835794471437	122752
122.852	50	378	0	0	jacket	836	69	1	stimuli\jacket\jacket_07s.jpg	6	-1	1	0	jacket_07s.jpg	0	0.0	0	115.433516751036	115.48349642953698	0.0499796785006765	122852
122.952	50	379	0	0	rat	1285	70	1	stimuli\rat\rat_04s.jpg	3	-1	1	0	rat_04s.jpg	0	0.0	0	115.533515605137	115.583497721724	0.0499821165867615	122952
123.052	50	380	0	0	toy	1694	71	1	stimuli\toy\toy_07s.jpg	6	-1	1	0	toy_07s.jpg	0	0.0	0	115.633519091607	115.68349852629801	0.0499794346906128	123052
123.152	50	381	0	0	ferris_wheel	579	72	1	stimuli\ferris_wheel\ferris_wheel_01b.jpg	0	-1	1	0	ferris_wheel_01b.jpg	0	0.0	0	115.73352257807699	115.783504694671	0.0499821165940375	123152
123.252	50	382	0	0	sponge	1517	73	1	stimuli\sponge\sponge_09s.jpg	8	-1	1	0	sponge_09s.jpg	0	0.0	0	115.83352167598801	115.88350257353201	0.049980897543719004	123252
123.352	50	383	0	0	turntable	1735	74	1	stimuli\turntable\turntable_04s.jpg	3	-1	1	1	turntable_04s.jpg	0	0.0	0	115.933544667198	115.983508254285	0.0499635870874044	123352
123.452	50	384	0	0	gargoyle	657	75	1	stimuli\gargoyle\gargoyle_12s.jpg	11	-1	1	0	gargoyle_12s.jpg	0	0.0	0	116.03353450035499	116.083512472185	0.0499779718302307	123452
123.552	50	385	0	0	chalkboard	303	76	1	stimuli\chalkboard\chalkboard_06s.jpg	5	-1	1	0	chalkboard_06s.jpg	0	0.0	0	116.133528965882	116.183512789139	0.0499838232572074	123552
123.652	50	386	0	0	candy_cane	257	77	1	stimuli\candy_cane\candy_cane_09s.jpg	8	-1	1	0	candy_cane_09s.jpg	0	0.0	0	116.233508559046	116.28349067564	0.0499821165940375	123652
123.752	50	387	0	0	dumbwaiter	531	78	1	stimuli\dumbwaiter\dumbwaiter_10s.jpg	9	-1	1	0	dumbwaiter_10s.jpg	1	0.44187331329885604	1	116.33351155790301	116.383497331633	0.049985773730441	123752
123.852	50	388	0	0	walker2	1774	79	1	stimuli\walker2\walker2_10s.jpg	9	-1	1	0	walker2_10s.jpg	0	0.0	0	116.433531135786	116.48352495521999	0.0499938194334391	123852
123.952	50	389	0	0	underwear	1745	80	1	stimuli\underwear\underwear_06s.jpg	5	-1	1	0	underwear_06s.jpg	0	0.0	0	116.533546812723	116.5835233217	0.0499765089771245	123952
124.052	50	390	0	0	salad	1348	81	1	stimuli\salad\salad_04s.jpg	3	-1	1	0	salad_04s.jpg	0	0.0	0	116.63354810491	116.683529246264	0.0499811413537827	124052
124.152	50	391	0	0	pudding	1246	82	1	stimuli\pudding\pudding_05s.jpg	4	-1	1	0	pudding_05s.jpg	0	0.0	0	116.73355232281	116.783509327048	0.0499570042375126	124152
124.252	50	392	0	0	helicopter	775	83	1	stimuli\helicopter\helicopter_12s.jpg	11	-1	1	0	helicopter_12s.jpg	0	0.0	0	116.83352508931401	116.883506474478	0.0499813851638464	124252
124.352	50	393	0	0	jelly_bean	844	84	1	stimuli\jelly_bean\jelly_bean_04s.jpg	3	-1	1	0	jelly_bean_04s.jpg	0	0.0	0	116.933528331982	116.983507766665	0.0499794346833369	124352
124.452	50	394	0	0	kettle	868	85	1	stimuli\kettle\kettle_08s.jpg	7	-1	1	0	kettle_08s.jpg	0	0.0	0	117.033529136548	117.083516129329	0.0499869927807595	124452
124.552	50	395	0	0	rabbit	1265	86	1	stimuli\rabbit\rabbit_07s.jpg	6	-1	1	0	rabbit_07s.jpg	0	0.0	0	117.133528965882	117.183532293879	0.0500033279968193	124552
124.652	50	396	0	0	slicer	1463	87	1	stimuli\slicer\slicer_07s.jpg	6	-1	1	0	slicer_07s.jpg	0	0.0	0	117.233537572349	117.283516031799	0.0499784594503581	124652
124.752	50	397	0	0	earplug	539	88	1	stimuli\earplug\earplug_11s.jpg	10	-1	1	0	earplug_11s.jpg	0	0.0	0	117.333538376923	117.383517080183	0.0499787032604218	124752
124.852	50	398	0	0	trigger	1713	89	1	stimuli\trigger\trigger_08s.jpg	7	-1	1	0	trigger_08s.jpg	0	0.0	0	117.433566731939	117.483514715233	0.0499479832942598	124852
124.952	50	399	0	0	streetlight	1571	90	1	stimuli\streetlight\streetlight_07s.jpg	6	-1	1	0	streetlight_07s.jpg	0	0.0	0	117.533546568913	117.58352307788999	0.0499765089771245	124952
125.052	50	400	0	0	sweeper	1594	91	1	stimuli\sweeper\sweeper_01b.jpg	0	-1	1	0	sweeper_01b.jpg	0	0.0	0	117.633545179197	117.683538023397	0.0499928442004602	125052
125.152	50	401	0	0	mitten	1008	92	1	stimuli\mitten\mitten_01b.jpg	0	-1	1	0	mitten_01b.jpg	0	0.0	0	117.73354525234	117.783530294641	0.0499850423002499	125152
125.252	50	402	0	0	wallpaper	1777	93	1	stimuli\wallpaper\wallpaper_07s.jpg	6	-1	1	0	wallpaper_07s.jpg	0	0.0	0	117.83354922643	117.88352914874099	0.0499799223107402	125252
125.352	50	403	0	0	ice_cream	818	94	1	stimuli\ice_cream\ice_cream_12s.jpg	11	-1	1	0	ice_cream_12s.jpg	0	0.0	0	117.93355295671101	117.98353263521099	0.0499796785006765	125352
125.452	50	404	0	0	cocktail	374	95	1	stimuli\cocktail\cocktail_09s.jpg	8	-1	1	0	cocktail_09s.jpg	0	0.0	0	118.033545959384	118.083566110225	0.0500201508402824	125452
125.552	50	405	0	0	cilantro	347	96	1	stimuli\cilantro\cilantro_12s.jpg	11	-1	1	0	cilantro_12s.jpg	0	0.0	0	118.133586017248	118.183547653862	0.0499616366141709	125552
125.652	50	406	0	0	cot	420	97	1	stimuli\cot\cot_07s.jpg	6	-1	1	0	cot_07s.jpg	0	0.0	0	118.23356049042201	118.283539193682	0.0499787032604218	125652
125.752	50	407	0	0	drink	521	98	1	stimuli\drink\drink_02s.jpg	1	-1	1	0	drink_02s.jpg	0	0.0	0	118.33356007594601	118.383542192532	0.0499821165867615	125752
125.852	50	408	0	0	burner	224	99	1	stimuli\burner\burner_04s.jpg	3	-1	1	0	burner_04s.jpg	0	0.0	0	118.43360452236799	118.483573960882	0.0499694385143812	125852
125.952	50	409	0	0	eggbeater	548	100	1	stimuli\eggbeater\eggbeater_09s.jpg	8	-1	1	0	eggbeater_09s.jpg	0	0.0	0	118.533599231712	118.583575496879	0.0499762651670608	125952
126.052	50	410	0	0	octopus	1070	101	1	stimuli\octopus\octopus_06s.jpg	5	-1	1	0	octopus_06s.jpg	0	0.0	0	118.633603449613	118.68357995858999	0.0499765089771245	126052
126.152	50	411	0	0	bed	108	102	1	stimuli\bed\bed_07n.jpg	6	-1	1	0	bed_07n.jpg	0	0.0	0	118.733603035136	118.78358563934299	0.0499826042068889	126152
126.252	50	412	0	0	rubber_band	1337	103	1	stimuli\rubber_band\rubber_band_03s.jpg	2	-1	1	0	rubber_band_03s.jpg	0	0.0	0	118.83360481494302	118.88358766296001	0.0499828480169526	126252
126.352	50	413	0	0	hairbrush	734	104	1	stimuli\hairbrush\hairbrush_07s.jpg	6	-1	1	0	hairbrush_07s.jpg	0	0.0	0	118.93360976427401	118.983589198957	0.0499794346833369	126352
126.452	50	414	0	0	folder	625	105	1	stimuli\folder\folder_11s.jpg	10	-1	1	0	folder_11s.jpg	0	0.0	0	119.03360983741001	119.08357293688499	0.049963099474553	126452
126.552	50	415	0	0	cashew	281	106	1	stimuli\cashew\cashew_01b.jpg	0	-1	1	0	cashew_01b.jpg	0	0.0	0	119.13361259245701	119.183596903335	0.0499843108773348	126552
126.652	50	416	0	0	fountain_pen	637	107	1	stimuli\fountain_pen\fountain_pen_02s.jpg	1	-1	1	0	fountain_pen_02s.jpg	0	0.0	0	119.233617297978	119.283596245048	0.0499789470704854	126652
126.752	50	417	0	0	crank	432	108	1	stimuli\crank\crank_01b.jpg	0	-1	1	0	crank_01b.jpg	0	0.0	0	119.333617858734	119.38358315249201	0.0499652937578503	126752
126.852	50	418	0	0	backscratcher	50	109	1	stimuli\backscratcher\backscratcher_05s.jpg	4	-1	1	0	backscratcher_05s.jpg	0	0.0	0	119.433625489968	119.48360151132499	0.0499760213569971	126852
126.952	50	419	0	0	pedometer	1137	110	1	stimuli\pedometer\pedometer_12s.jpg	11	-1	1	0	pedometer_12s.jpg	0	0.0	0	119.533608984078	119.583601828279	0.0499928442004602	126952
127.052	50	420	0	0	footbath	631	111	1	stimuli\footbath\footbath_11s.jpg	10	-1	1	0	footbath_11s.jpg	0	0.0	0	119.633607350559	119.68360531474899	0.0499979641899699	127052
127.152	50	421	0	0	bat1	87	112	1	stimuli\bat1\bat1_03s.jpg	2	-1	1	0	bat1_03s.jpg	0	0.0	0	119.73362765987301	119.783611483123	0.0499838232499314	127152
127.252	50	422	0	0	antelope	26	113	1	stimuli\antelope\antelope_03n.jpg	2	-1	1	0	antelope_03n.jpg	0	0.0	0	119.833623344442	119.88359546486	0.0499721204178059	127252
127.352	50	423	0	0	water_filter	1789	114	1	stimuli\water_filter\water_filter_02s.jpg	1	-1	1	0	water_filter_02s.jpg	0	0.0	0	119.933636339476	119.98361236084	0.04997602136427299	127352
127.452	50	424	0	0	cookie	400	115	1	stimuli\cookie\cookie_09s.jpg	8	-1	1	0	cookie_09s.jpg	0	0.0	0	120.033635437387	120.08361560350001	0.049980166113528006	127452
127.552	50	425	0	0	watermelon	1793	116	1	stimuli\watermelon\watermelon_06s.jpg	5	-1	1	0	watermelon_06s.jpg	0	0.0	0	120.13363526671999	120.18362152806401	0.0499862613432924	127552
127.652	50	426	0	0	cooler	403	117	1	stimuli\cooler\cooler_07s.jpg	6	-1	1	0	cooler_07s.jpg	0	0.0	0	120.23364021604401	120.283608191698	0.049967975653999	127652
127.752	50	427	0	0	flamethrower	607	118	1	stimuli\flamethrower\flamethrower_08s.jpg	7	-1	1	0	flamethrower_08s.jpg	0	0.0	0	120.33364297109101	120.383607533418	0.0499645623276592	127752
127.852	50	428	0	0	comb	389	119	1	stimuli\comb\comb_03s.jpg	2	-1	1	0	comb_03s.jpg	0	0.0	0	120.433648164231	120.483628817965	0.0499806537336553	127852
127.952	50	429	0	0	cocoon	376	120	1	stimuli\cocoon\cocoon_08s.jpg	7	-1	1	0	cocoon_08s.jpg	0	0.0	0	120.533648724988	120.58362767205799	0.0499789470704854	127952
128.052	50	430	0	0	fox	638	121	1	stimuli\fox\fox_10s.jpg	9	-1	1	0	fox_10s.jpg	0	0.0	0	120.633648066701	120.683633352819	0.0499852861175896	128052
128.152	50	431	0	0	parachute	1118	122	1	stimuli\parachute\parachute_01b.jpg	0	-1	1	1	parachute_01b.jpg	0	0.0	0	120.733628147485	120.783608313606	0.0499801661208039	128152
128.252	50	432	0	0	awning	44	123	1	stimuli\awning\awning_10s.jpg	9	-1	1	0	awning_10s.jpg	0	0.0	0	120.83362846443899	120.88360911817301	0.0499806537336553	128252
128.352	50	433	0	0	splinter	1516	124	1	stimuli\splinter\splinter_01b.jpg	0	-1	1	0	splinter_01b.jpg	0	0.0	0	120.933635608053	120.98361236084	0.0499767527871882	128352
128.452	50	434	0	0	bucket	209	125	1	stimuli\bucket\bucket_02n.jpg	1	-1	1	0	bucket_02n.jpg	0	0.0	0	121.03364202023701	121.083621211117	0.0499791908805491	128452
128.552	50	435	0	0	handcuff	746	126	1	stimuli\handcuff\handcuff_02s.jpg	1	-1	1	0	handcuff_02s.jpg	1	0.40616476580908095	1	121.13364501908701	121.18365566136299	0.0500106422769022	128552
128.652	50	436	0	0	seesaw	1402	127	1	stimuli\seesaw\seesaw_12s.jpg	11	-1	1	0	seesaw_12s.jpg	0	0.0	0	121.23367191125	121.28363501071699	0.0499630994672771	128652
128.752	50	437	0	0	tuba	1723	128	1	stimuli\tuba\tuba_08s.jpg	7	-1	1	0	tuba_08s.jpg	0	0.0	0	121.333656380601	121.383654344791	0.0499979641899699	128752
128.852	50	438	0	0	painting	1098	129	1	stimuli\painting\painting_10s.jpg	9	-1	1	0	painting_10s.jpg	0	0.0	0	121.43367352039101	121.483658318881	0.0499847984901862	128852
128.952	50	439	0	0	taxi	1630	130	1	stimuli\taxi\taxi_02s.jpg	1	-1	1	0	taxi_02s.jpg	0	0.0	0	121.533680907814	121.583645713945	0.049964806130446994	128952
129.052	50	440	0	0	leotard	918	131	1	stimuli\leotard\leotard_05s.jpg	4	-1	1	0	leotard_05s.jpg	0	0.0	0	121.63368049333799	121.683665291828	0.0499847984901862	129052
129.152	50	441	0	0	briefcase	200	132	1	stimuli\briefcase\briefcase_01b.jpg	0	-1	1	0	briefcase_01b.jpg	0	0.0	0	121.733684955048	121.783647566896	0.0499626118471497	129152
129.252	50	442	0	0	orangutan	1080	133	1	stimuli\orangutan\orangutan_05s.jpg	4	-1	1	0	orangutan_05s.jpg	0	0.0	0	121.83368673485501	121.88364885908199	0.0499621242270223	129252
129.352	50	443	0	0	alligator	12	134	1	stimuli\alligator\alligator_01b.jpg	0	-1	1	0	alligator_01b.jpg	0	0.0	0	121.933689489895	121.983670387439	0.049980897543719004	129352
129.452	50	444	0	0	rose	1334	135	1	stimuli\rose\rose_05s.jpg	4	-1	1	0	rose_05s.jpg	0	0.0	0	122.033691025892	122.083670460583	0.0499794346906128	129452
129.552	50	445	0	0	canister	259	136	1	stimuli\canister\canister_05s.jpg	4	-1	1	0	canister_05s.jpg	0	0.0	0	122.13369134284599	122.183676628956	0.0499852861103136	129552
129.652	50	446	0	0	hot_tub	804	137	1	stimuli\hot_tub\hot_tub_07s.jpg	6	-1	1	0	hot_tub_07s.jpg	0	0.0	0	122.23370336264601	122.283660854497	0.049957491850364	129652
129.752	50	447	0	0	muff	1034	138	1	stimuli\muff\muff_07s.jpg	6	-1	1	0	muff_07s.jpg	0	0.0	0	122.33368173676	122.38367848190701	0.0499967451469274	129752
129.852	50	448	0	0	metal_detector	996	139	1	stimuli\metal_detector\metal_detector_09s.jpg	8	-1	1	0	metal_detector_09s.jpg	0	0.0	0	122.433703508927	122.483685869331	0.0499823604041012	129852
129.952	50	449	0	0	reindeer	1301	140	1	stimuli\reindeer\reindeer_12s.jpg	11	-1	1	0	reindeer_12s.jpg	0	0.0	0	122.53370333826	122.583683016761	0.0499796785006765	129952
130.052	50	450	0	0	fish	600	141	1	stimuli\fish\fish_07s.jpg	6	-1	1	0	fish_07s.jpg	0	0.0	0	122.63370584949699	122.683690891798	0.0499850423002499	130052
130.152	50	451	0	0	magnifier	957	142	1	stimuli\magnifier\magnifier_04s.jpg	3	-1	1	0	magnifier_04s.jpg	0	0.0	0	122.733693488372	122.783688283038	0.0499947946664179	130152
130.252	50	452	0	0	strawberry	1570	143	1	stimuli\strawberry\strawberry_10n.jpg	9	-1	1	0	strawberry_10n.jpg	0	0.0	0	122.83369478055799	122.883675678102	0.049980897543719004	130252
130.352	50	453	0	0	red_carpet	1298	144	1	stimuli\red_carpet\red_carpet_10s.jpg	9	-1	1	0	red_carpet_10s.jpg	0	0.0	0	122.933715577485	122.983696231226	0.0499806537409313	130352
130.452	50	454	0	0	tuxedo	1738	145	1	stimuli\tuxedo\tuxedo_10s.jpg	9	-1	1	0	tuxedo_10s.jpg	0	0.0	0	123.033714919206	123.08369849865299	0.0499835794471437	130452
130.552	50	455	0	0	jewel	849	146	1	stimuli\jewel\jewel_11s.jpg	10	-1	1	0	jewel_11s.jpg	0	0.0	0	123.133721575192	123.18370393559601	0.0499823604041012	130552
130.652	50	456	0	0	nightshirt	1058	147	1	stimuli\nightshirt\nightshirt_04s.jpg	3	-1	1	0	nightshirt_04s.jpg	0	0.0	0	123.233721892146	123.283688892567	0.0499670004210202	130652
130.752	50	457	0	0	urn	1749	148	1	stimuli\urn\urn_06s.jpg	5	-1	1	0	urn_06s.jpg	0	0.0	0	123.333724647193	123.383690672374	0.0499660251807654	130752
130.852	50	458	0	0	face_mask	570	149	1	stimuli\face_mask\face_mask_04s.jpg	3	-1	1	0	face_mask_04s.jpg	0	0.0	0	123.43372984032601	123.483696353127	0.0499665128008928	130852
130.952	50	459	0	0	asparagus	42	150	1	stimuli\asparagus\asparagus_11s.jpg	10	-1	1	0	asparagus_11s.jpg	0	0.0	0	123.533728938237	123.58369374436701	0.049964806130446994	130952
131.052	50	460	0	0	toothbrush	1679	151	1	stimuli\toothbrush\toothbrush_06s.jpg	5	-1	1	0	toothbrush_06s.jpg	0	0.0	0	123.63373413136999	123.68371844224701	0.0499843108773348	131052
131.152	50	461	0	0	missile	1006	152	1	stimuli\missile\missile_01b.jpg	0	-1	1	0	missile_01b.jpg	0	0.0	0	123.733735179754	123.783717296341	0.0499821165867615	131152
131.252	50	462	0	0	train_car	1699	153	1	stimuli\train_car\train_car_06s.jpg	5	-1	1	0	train_car_06s.jpg	0	0.0	0	123.83372379386101	123.883707860921	0.0499840670599951	131252
131.352	50	463	0	0	buffet	211	154	1	stimuli\buffet\buffet_02s.jpg	1	-1	1	0	buffet_02s.jpg	0	0.0	0	123.933746297451	123.983721343575	0.0499750461240183	131352
131.452	50	464	0	0	twig	1740	155	1	stimuli\twig\twig_06s.jpg	5	-1	1	0	twig_06s.jpg	0	0.0	0	124.033744663931	124.083722391959	0.0499777280274429	131452
131.552	50	465	0	0	pasta	1123	156	1	stimuli\pasta\pasta_01b.jpg	0	-1	1	0	pasta_01b.jpg	0	0.0	0	124.13373083994499	124.18372734128201	0.0499965013368637	131552
131.652	50	466	0	0	insole	831	157	1	stimuli\insole\insole_07s.jpg	6	-1	1	0	insole_07s.jpg	0	0.0	0	124.233748711165	124.28371278587299	0.0499640747075318	131652
131.752	50	467	0	0	washing_machine	1784	158	1	stimuli\washing_machine\washing_machine_04s.jpg	3	-1	1	0	washing_machine_04s.jpg	0	0.0	0	124.333752685256	124.38373138851601	0.0499787032604218	131752
131.852	50	468	0	0	yacht	1844	159	1	stimuli\yacht\yacht_10s.jpg	9	-1	1	0	yacht_10s.jpg	0	0.0	0	124.433758366009	124.483734874993	0.0499765089844004	131852
131.952	50	469	0	0	blowgun	147	160	1	stimuli\blowgun\blowgun_11s.jpg	10	-1	1	0	blowgun_11s.jpg	0	0.0	0	124.53375868296301	124.58373738622299	0.0499787032604218	131952
132.052	50	470	0	0	canvas	264	161	1	stimuli\canvas\canvas_05s.jpg	4	-1	1	0	canvas_05s.jpg	0	0.0	0	124.633755586583	124.683723074624	0.0499674880411476	132052
132.152	50	471	0	0	grenade	713	162	1	stimuli\grenade\grenade_04s.jpg	3	-1	1	0	grenade_04s.jpg	0	0.0	0	124.733761511154	124.783740945837	0.0499794346833369	132152
132.252	50	472	0	0	binoculars	127	163	1	stimuli\binoculars\binoculars_05s.jpg	4	-1	1	0	binoculars_05s.jpg	0	0.0	0	124.833762803341	124.88373272946801	0.0499699261272326	132252
132.352	50	473	0	0	dartboard	474	164	1	stimuli\dartboard\dartboard_04s.jpg	3	-1	1	0	dartboard_04s.jpg	0	0.0	0	124.93378872026399	124.983737191178	0.0499484709143871	132352
132.452	50	474	0	0	bungee	221	165	1	stimuli\bungee\bungee_08s.jpg	7	-1	1	0	bungee_08s.jpg	0	0.0	0	125.033767582005	125.083750917642	0.04998333563708	132452
132.552	50	475	0	0	webcam	1799	166	1	stimuli\webcam\webcam_03s.jpg	2	-1	1	0	webcam_03s.jpg	0	0.0	0	125.13377082466499	125.183737093656	0.0499662689908291	132552
132.652	50	476	0	0	boulder	172	167	1	stimuli\boulder\boulder_02s.jpg	1	-1	1	0	boulder_02s.jpg	0	0.0	0	125.233751393069	125.28373424108601	0.0499828480169526	132652
132.752	50	477	0	0	beetle	115	168	1	stimuli\beetle\beetle_04s.jpg	3	-1	1	0	beetle_04s.jpg	0	0.0	0	125.333751466213	125.38373309517901	0.0499816289666342	132752
132.852	50	478	0	0	tostada	1688	169	1	stimuli\tostada\tostada_06s.jpg	5	-1	1	0	tostada_06s.jpg	0	0.0	0	125.433783722176	125.48376047496299	0.0499767527871882	132852
132.952	50	479	0	0	tile	1660	170	1	stimuli\tile\tile_06s.jpg	5	-1	1	0	tile_06s.jpg	0	0.0	0	125.53377843151199	125.583761523339	0.0499830918270163	132952
133.052	50	480	0	0	switch	1600	171	1	stimuli\switch\switch_04s.jpg	3	-1	1	0	switch_04s.jpg	0	0.0	0	125.63376582657699	125.683751844117	0.0499860175405047	133052
133.152	50	481	0	0	button2	231	172	1	stimuli\button2\button2_04s.jpg	3	-1	1	0	button2_04s.jpg	0	0.0	0	125.733788573976	125.783751185831	0.0499626118544256	133152
133.252	50	482	0	0	pesto	1156	173	1	stimuli\pesto\pesto_07s.jpg	6	-1	1	0	pesto_07s.jpg	0	0.0	0	125.833773774757	125.88375491611099	0.0499811413537827	133252
133.352	50	483	0	0	quesadilla	1261	174	1	stimuli\quesadilla\quesadilla_06s.jpg	5	-1	1	0	quesadilla_06s.jpg	0	0.0	0	125.933795059304	125.983770349238	0.049975289934082005	133352
133.452	50	484	0	0	root	1331	175	1	stimuli\root\root_11s.jpg	10	-1	1	1	root_11s.jpg	0	0.0	0	126.033792450544	126.083773348088	0.049980897543719004	133452
133.552	50	485	0	0	seahorse	1396	176	1	stimuli\seahorse\seahorse_12s.jpg	11	-1	1	0	seahorse_12s.jpg	0	0.0	0	126.133779601798	126.183776346945	0.0499967451469274	133552
133.652	50	486	0	0	police_car	1214	177	1	stimuli\police_car\police_car_08s.jpg	7	-1	1	0	police_car_08s.jpg	0	0.0	0	126.233800398724	126.28378154008499	0.0499811413610587	133652
133.752	50	487	0	0	workbench	1835	178	1	stimuli\workbench\workbench_06s.jpg	5	-1	1	0	workbench_06s.jpg	1	0.341930291520839	1	126.333799740445	126.383782344652	0.0499826042068889	133752
133.852	50	488	0	0	plug	1202	179	1	stimuli\plug\plug_10s.jpg	9	-1	1	0	plug_10s.jpg	0	0.0	0	126.433807371672	126.483786074932	0.0499787032604218	133852
133.952	50	489	0	0	margarita	973	180	1	stimuli\margarita\margarita_06s.jpg	5	-1	1	0	margarita_06s.jpg	0	0.0	0	126.533806225772	126.583786148076	0.0499799223034643	133952
134.052	50	490	0	0	rattlesnake	1288	181	1	stimuli\rattlesnake\rattlesnake_05s.jpg	4	-1	1	0	rattlesnake_05s.jpg	0	0.0	0	126.633796058923	126.683790609786	0.0499945508636301	134052
134.152	50	491	0	0	cougar	423	182	1	stimuli\cougar\cougar_11s.jpg	10	-1	1	0	cougar_11s.jpg	0	0.0	0	126.73381197967	126.78379019531	0.0499782156402944	134152
134.252	50	492	0	0	log	943	183	1	stimuli\log\log_04s.jpg	3	-1	1	0	log_04s.jpg	0	0.0	0	126.83381449089899	126.883776858944	0.0499623680443619	134252
134.352	50	493	0	0	golf_cart	689	184	1	stimuli\golf_cart\golf_cart_07s.jpg	6	-1	1	0	golf_cart_07s.jpg	0	0.0	0	126.933814807853	126.983782295887	0.0499674880338716	134352
134.452	50	494	0	0	wetsuit	1803	185	1	stimuli\wetsuit\wetsuit_02s.jpg	1	-1	1	0	wetsuit_02s.jpg	0	0.0	0	127.03380244672701	127.083782856651	0.0499804099235917	134452
134.552	50	495	0	0	rooster	1330	186	1	stimuli\rooster\rooster_08s.jpg	7	-1	1	0	rooster_08s.jpg	0	0.0	0	127.133820074137	127.183802922154	0.0499828480169526	134552
134.652	50	496	0	0	paper	1112	187	1	stimuli\paper\paper_02s.jpg	1	-1	1	0	paper_02s.jpg	0	0.0	0	127.23382307298701	127.283787635315	0.0499645623276592	134652
134.752	50	497	0	0	fudge	647	188	1	stimuli\fudge\fudge_06s.jpg	5	-1	1	0	fudge_06s.jpg	0	0.0	0	127.333826803268	127.383790877975	0.0499640747075318	134752
134.852	50	498	0	0	dog	495	189	1	stimuli\dog\dog_12s.jpg	11	-1	1	0	dog_12s.jpg	0	0.0	0	127.43383321545099	127.48380996823799	0.0499767527871882	134852
134.952	50	499	0	0	hose	800	190	1	stimuli\hose\hose_12s.jpg	11	-1	1	0	hose_12s.jpg	0	0.0	0	127.53383231336201	127.583810529002	0.0499782156402944	134952
135.052	50	500	0	0	whisk	1811	191	1	stimuli\whisk\whisk_07s.jpg	6	-1	1	0	whisk_07s.jpg	0	0.0	0	127.633844576965	127.683815722143	0.0499711451775511	135052
135.152	50	501	0	0	saddle	1343	192	1	stimuli\saddle\saddle_05s.jpg	4	-1	1	0	saddle_05s.jpg	0	0.0	0	127.73383611678601	127.783815551476	0.0499794346906128	135152
135.252	50	502	0	0	shield	1420	193	1	stimuli\shield\shield_06s.jpg	5	-1	1	0	shield_06s.jpg	0	0.0	0	127.83383838421301	127.883829277933	0.0499908937199507	135252
135.352	50	503	0	0	wig	1816	194	1	stimuli\wig\wig_03s.jpg	2	-1	1	0	wig_03s.jpg	0	0.0	0	127.933847234483	127.98380521396003	0.0499579794777674	135352
135.452	50	504	0	0	target	1627	195	1	stimuli\target\target_05s.jpg	4	-1	1	0	target_05s.jpg	0	0.0	0	128.033826827654	128.083806749957	0.0499799223034643	135452
135.552	50	505	0	0	hammer	741	196	1	stimuli\hammer\hammer_06s.jpg	5	-1	1	0	hammer_06s.jpg	0	0.0	0	128.13384884363	128.183826571651	0.049977728020167	135552
135.652	50	506	0	0	celery	291	197	1	stimuli\celery\celery_10s.jpg	9	-1	1	0	celery_10s.jpg	0	0.0	0	128.23384989200702	128.283830301931	0.0499804099235917	135652
135.752	50	507	0	0	flashbulb	610	198	1	stimuli\flashbulb\flashbulb_01b.jpg	0	-1	1	0	flashbulb_01b.jpg	0	0.0	0	128.333848989911	128.383820622708	0.0499716327976785	135752
135.852	50	508	0	0	can	250	199	1	stimuli\can\can_04s.jpg	3	-1	1	0	can_04s.jpg	0	0.0	0	128.433854670671	128.483833373932	0.0499787032604218	135852
135.952	50	509	0	0	steamroller	1545	200	1	stimuli\steamroller\steamroller_03n.jpg	2	-1	1	0	steamroller_03n.jpg	0	0.0	0	128.533860351425	128.583838567065	0.0499782156402944	135952
136.052	50	510	0	0	poster	1229	201	1	stimuli\poster\poster_01s.jpg	0	-1	1	0	poster_01s.jpg	0	0.0	0	128.633862131232	128.683842053542	0.0499799223107402	136052
136.152	50	511	0	0	cash_machine	279	202	1	stimuli\cash_machine\cash_machine_04s.jpg	3	-1	1	0	cash_machine_04s.jpg	0	0.0	0	128.733865617702	128.783842858109	0.0499772404073155	136152
136.252	50	512	0	0	eyepiece	568	203	1	stimuli\eyepiece\eyepiece_02s.jpg	1	-1	1	0	eyepiece_02s.jpg	0	0.0	0	128.833864471802	128.883867312179	0.0500028403766919	136252
136.352	50	513	0	0	anteater	25	204	1	stimuli\anteater\anteater_08s.jpg	7	-1	1	0	anteater_08s.jpg	0	0.0	0	128.933885512539	128.98385129391002	0.0499657813707017	136352
136.452	50	514	0	0	coop	404	205	1	stimuli\coop\coop_06s.jpg	5	-1	1	0	coop_06s.jpg	0	0.0	0	129.033853646666	129.0838367385	0.0499830918342923	136452
136.552	50	515	0	0	cymbal	468	206	1	stimuli\cymbal\cymbal_08s.jpg	7	-1	1	0	cymbal_08s.jpg	0	0.0	0	129.13385762076402	129.183842175444	0.0499845546801225	136552
136.652	50	516	0	0	candelabra	252	207	1	stimuli\candelabra\candelabra_03s.jpg	2	-1	1	0	candelabra_03s.jpg	0	0.0	0	129.23387744245	129.283855414287	0.0499779718375066	136652
136.752	50	517	0	0	xylophone	1843	208	1	stimuli\xylophone\xylophone_06s.jpg	5	-1	1	0	xylophone_06s.jpg	0	0.0	0	129.333877271783	129.383859388377	0.0499821165940375	136752
136.852	50	518	0	0	sticker	1553	209	1	stimuli\sticker\sticker_10s.jpg	9	-1	1	0	sticker_10s.jpg	0	0.0	0	129.433863691607	129.48383971297199	0.04997602136427299	136852
136.952	50	519	0	0	gourd	696	210	1	stimuli\gourd\gourd_02s.jpg	1	-1	1	0	gourd_02s.jpg	0	0.0	0	129.533861326658	129.583841492778	0.0499801661208039	136952
137.052	50	520	0	0	inkwell	830	211	1	stimuli\inkwell\inkwell_10s.jpg	9	-1	1	0	inkwell_10s.jpg	0	0.0	0	129.633898702617	129.683867653512	0.0499689508942538	137052
137.152	50	521	0	0	fur_coat	650	212	1	stimuli\fur_coat\fur_coat_07s.jpg	6	-1	1	0	fur_coat_07s.jpg	0	0.0	0	129.733889267205	129.78385285429198	0.0499635870874044	137152
137.252	50	522	0	0	ski_pole	1455	213	1	stimuli\ski_pole\ski_pole_09s.jpg	8	-1	1	0	ski_pole_09s.jpg	0	0.0	0	129.83389129082198	129.883872675979	0.0499813851565705	137252
137.352	50	523	0	0	starfish	1541	214	1	stimuli\starfish\starfish_09s.jpg	8	-1	1	0	starfish_09s.jpg	0	0.0	0	129.933901603952	129.98386519104	0.0499635870874044	137352
137.452	50	524	0	0	yarn	1846	215	1	stimuli\yarn\yarn_04s.jpg	3	-1	1	0	yarn_04s.jpg	0	0.0	0	130.03389558185899	130.083879405116	0.0499838232572074	137452
137.552	50	525	0	0	megaphone	993	216	1	stimuli\megaphone\megaphone_11s.jpg	10	-1	1	0	megaphone_11s.jpg	0	0.0	0	130.1338744436	130.18388020969	0.0500057660901803	137552
137.652	50	526	0	0	granola	701	217	1	stimuli\granola\granola_11s.jpg	10	-1	1	0	granola_11s.jpg	0	0.0	0	130.233906211943	130.283882233307	0.04997602136427299	137652
137.752	50	527	0	0	container	398	218	1	stimuli\container\container_06s.jpg	5	-1	1	0	container_06s.jpg	0	0.0	0	130.333885805114	130.383886207397	0.0500004022833309	137752
137.852	50	528	0	0	wolf	1831	219	1	stimuli\wolf\wolf_01b.jpg	0	-1	1	0	wolf_01b.jpg	0	0.0	0	130.433910746797	130.483887743394	0.0499769965972519	137852
137.952	50	529	0	0	sequin	1404	220	1	stimuli\sequin\sequin_12s.jpg	11	-1	1	0	sequin_12s.jpg	0	0.0	0	130.533892778054	130.583888547968	0.0499957699139486	137952
138.052	50	530	0	0	paintbrush	1097	221	1	stimuli\paintbrush\paintbrush_03s.jpg	2	-1	1	0	paintbrush_03s.jpg	0	0.0	0	130.63391259974702	130.683890083965	0.0499774842173792	138052
138.152	50	531	0	0	rack1	1268	222	1	stimuli\rack1\rack1_01b.jpg	0	-1	1	0	rack1_01b.jpg	0	0.0	0	130.733897069098	130.783892595195	0.049995526096609004	138152
138.252	50	532	0	0	hamburger	740	223	1	stimuli\hamburger\hamburger_04s.jpg	3	-1	1	0	hamburger_04s.jpg	0	0.0	0	130.833917134602	130.883905346425	0.049988211823802	138252
138.352	50	533	0	0	birdhouse	131	224	1	stimuli\birdhouse\birdhouse_02s.jpg	1	-1	1	0	birdhouse_02s.jpg	0	0.0	0	130.933919889641	130.983901274805	0.0499813851638464	138352
138.452	50	534	0	0	dandelion	472	225	1	stimuli\dandelion\dandelion_11s.jpg	10	-1	1	0	dandelion_11s.jpg	0	0.0	0	131.033927277065	131.08388550034599	0.0499582232805551	138452
138.552	50	535	0	0	towel	1692	226	1	stimuli\towel\towel_05s.jpg	4	-1	1	0	towel_05s.jpg	0	0.0	0	131.133926862589	131.183894594433	0.0499677318439353	138552
138.652	50	536	0	0	violin	1764	227	1	stimuli\violin\violin_03n.jpg	2	-1	1	0	violin_03n.jpg	0	0.0	0	131.233928642396	131.283907589466	0.0499789470704854	138652
138.752	50	537	0	0	eel	545	228	1	stimuli\eel\eel_06s.jpg	5	-1	1	0	eel_06s.jpg	0	0.0	0	131.333927984109	131.383909613083	0.0499816289739101	138752
138.852	50	538	0	0	punch1	1254	229	1	stimuli\punch1\punch1_05s.jpg	4	-1	1	0	punch1_05s.jpg	0	0.0	0	131.4339319582	131.483913587173	0.0499816289739101	138852
138.952	50	539	0	0	periscope	1155	230	1	stimuli\periscope\periscope_02s.jpg	1	-1	1	0	periscope_02s.jpg	0	0.0	0	131.53393544467698	131.583917561264	0.0499821165867615	138952
139.052	50	540	0	0	shaker	1408	231	1	stimuli\shaker\shaker_09s.jpg	8	-1	1	0	shaker_09s.jpg	0	0.0	0	131.633923814974	131.68389886109802	0.0499750461240183	139052
139.152	50	541	0	0	panties	1107	232	1	stimuli\panties\panties_10s.jpg	9	-1	1	0	panties_10s.jpg	0	0.0	0	131.73391949955098	131.783900153285	0.0499806537336553	139152
139.252	50	542	0	0	wire_cutters	1829	233	1	stimuli\wire_cutters\wire_cutters_04s.jpg	3	-1	1	0	wire_cutters_04s.jpg	0	0.0	0	131.833926399355	131.883899982618	0.0499735832636361	139252
139.352	50	543	0	0	fan	571	234	1	stimuli\fan\fan_03s.jpg	2	-1	1	0	fan_03s.jpg	0	0.0	0	131.933920133451	131.983932726202	0.0500125927501358	139352
139.452	50	544	0	0	vial	1760	235	1	stimuli\vial\vial_05s.jpg	4	-1	1	0	vial_05s.jpg	0	0.0	0	132.03394531895202	132.083926704116	0.0499813851638464	139452
139.552	50	545	0	0	grapefruit	703	236	1	stimuli\grapefruit\grapefruit_02s.jpg	1	-1	1	0	grapefruit_02s.jpg	0	0.0	0	132.133949049232	132.183915562033	0.0499665128008928	139552
139.652	50	546	0	0	washcloth	1783	237	1	stimuli\washcloth\washcloth_09s.jpg	8	-1	1	0	washcloth_09s.jpg	0	0.0	0	132.233932055729	132.28391661041002	0.0499845546801225	139652
139.752	50	547	0	0	shell3	1419	238	1	stimuli\shell3\shell3_09s.jpg	8	-1	1	0	shell3_09s.jpg	0	0.0	0	132.333958704075	132.383933506389	0.0499748023139546	139752
139.852	50	548	0	0	camcorder	244	239	1	stimuli\camcorder\camcorder_12s.jpg	11	-1	1	0	camcorder_12s.jpg	0	0.0	0	132.433962190553	132.48392090145398	0.0499587109006825	139852
139.952	50	549	0	0	pliers	1201	240	1	stimuli\pliers\pliers_03s.jpg	2	-1	1	1	pliers_03s.jpg	0	0.0	0	132.533958606553	132.583939504097	0.049980897543719004	139952
140.052	50	550	0	0	recliner	1294	241	1	stimuli\recliner\recliner_08s.jpg	7	-1	1	0	recliner_08s.jpg	0	0.0	0	132.633963312073	132.683944453427	0.0499811413537827	140052
140.152	50	551	0	0	ski	1452	242	1	stimuli\ski\ski_02s.jpg	1	-1	1	0	ski_02s.jpg	0	0.0	0	132.733962653787	132.783931604681	0.0499689508942538	140152
140.252	50	552	0	0	cleat	353	243	1	stimuli\cleat\cleat_07s.jpg	6	-1	1	0	cleat_07s.jpg	1	0.341931754373945	1	132.833970528824	132.883951670177	0.0499811413537827	140252
140.352	50	553	0	0	hammock	742	244	1	stimuli\hammock\hammock_11s.jpg	10	-1	1	0	hammock_11s.jpg	0	0.0	0	132.933969626734	132.983951255708	0.0499816289739101	140352
140.452	50	554	0	0	parsley	1122	245	1	stimuli\parsley\parsley_05s.jpg	4	-1	1	0	parsley_05s.jpg	0	0.0	0	133.033956290368	133.083951572655	0.0499952822865453	140452
140.552	50	555	0	0	chest1	319	246	1	stimuli\chest1\chest1_01b.jpg	0	-1	1	0	chest1_01b.jpg	0	0.0	0	133.133979281578	133.183966030549	0.0499867489706958	140552
140.652	50	556	0	0	warthog	1781	247	1	stimuli\warthog\warthog_04n.jpg	3	-1	1	0	warthog_04n.jpg	0	0.0	0	133.233981061385	133.28395074370198	0.0499696823171689	140652
140.752	50	557	0	0	radar	1271	248	1	stimuli\radar\radar_04s.jpg	3	-1	1	0	radar_04s.jpg	0	0.0	0	133.333969919302	133.383955693032	0.049985773730441	140752
140.852	50	558	0	0	pineapple	1182	249	1	stimuli\pineapple\pineapple_09s.jpg	8	-1	1	0	pineapple_09s.jpg	0	0.0	0	133.433977306726	133.483955766176	0.0499784594503581	140852
140.952	50	559	0	0	eye_patch	565	250	1	stimuli\eye_patch\eye_patch_02s.jpg	1	-1	1	0	eye_patch_02s.jpg	0	0.0	0	133.533978598913	133.583958521223	0.0499799223107402	140952
141.052	50	560	0	0	hedgehog	774	251	1	stimuli\hedgehog\hedgehog_07s.jpg	6	-1	1	0	hedgehog_07s.jpg	0	0.0	0	133.633984035856	133.68396273912398	0.0499787032676977	141052
141.152	50	561	0	0	gold	687	252	1	stimuli\gold\gold_12s.jpg	11	-1	1	0	gold_12s.jpg	0	0.0	0	133.733981914716	133.78396403131	0.0499821165940375	141152
141.252	50	562	0	0	videogame	1762	253	1	stimuli\videogame\videogame_01b.jpg	0	-1	1	0	videogame_01b.jpg	0	0.0	0	133.83398588880698	133.883963860644	0.0499779718375066	141252
141.352	50	563	0	0	headphones	766	254	1	stimuli\headphones\headphones_12s.jpg	11	-1	1	0	headphones_12s.jpg	0	0.0	0	133.933989375284	133.983968078544	0.0499787032604218	141352
141.452	50	564	0	0	gumdrop	726	255	1	stimuli\gumdrop\gumdrop_08s.jpg	7	-1	1	0	gumdrop_08s.jpg	0	0.0	0	134.03399066747102	134.083971808825	0.0499811413537827	141452
141.552	50	565	0	0	girl	676	256	1	stimuli\girl\girl_06s.jpg	5	-1	1	0	girl_06s.jpg	0	0.0	0	134.133991472045	134.183976514345	0.0499850423002499	141552
141.652	50	566	0	0	mousetrap	1029	257	1	stimuli\mousetrap\mousetrap_09s.jpg	8	-1	1	0	mousetrap_09s.jpg	0	0.0	0	134.23399495851498	134.283974637015	0.0499796785006765	141652
141.752	50	567	0	0	popsicle	1225	258	1	stimuli\popsicle\popsicle_05s.jpg	4	-1	1	0	popsicle_05s.jpg	0	0.0	0	134.333995275469	134.383976416822	0.0499811413537827	141752
141.852	50	568	0	0	speedboat	1511	259	1	stimuli\speedboat\speedboat_10s.jpg	9	-1	1	0	speedboat_10s.jpg	0	0.0	0	134.433998761939	134.483982585196	0.0499838232572074	141852
141.952	50	569	0	0	blower	145	260	1	stimuli\blower\blower_06s.jpg	5	-1	1	0	blower_06s.jpg	0	0.0	0	134.534007856026	134.583987290716	0.0499794346906128	141952
142.052	50	570	0	0	cleaver	354	261	1	stimuli\cleaver\cleaver_02s.jpg	1	-1	1	0	cleaver_02s.jpg	0	0.0	0	134.634013049159	134.68398663243	0.0499735832709121	142052
142.152	50	571	0	0	tape_recorder	1624	262	1	stimuli\tape_recorder\tape_recorder_03s.jpg	2	-1	1	0	tape_recorder_03s.jpg	0	0.0	0	134.734008489926	134.783987680807	0.0499791908805491	142152
142.252	50	572	0	0	skeleton	1450	263	1	stimuli\skeleton\skeleton_09s.jpg	8	-1	1	0	skeleton_09s.jpg	0	0.0	0	134.83400905068999	134.88399409299	0.0499850423002499	142252
142.352	50	573	0	0	costume	419	264	1	stimuli\costume\costume_04s.jpg	3	-1	1	0	costume_04s.jpg	0	0.0	0	134.934014487633	134.983994897564	0.0499804099308676	142352
142.452	50	574	0	0	wind_chimes	1817	265	1	stimuli\wind_chimes\wind_chimes_01s.jpg	0	-1	1	0	wind_chimes_01s.jpg	0	0.0	0	135.034013829354	135.084000578318	0.0499867489634198	142452
142.552	50	575	0	0	racket	1270	266	1	stimuli\racket\racket_09s.jpg	8	-1	1	0	racket_09s.jpg	0	0.0	0	135.134022192011	135.184000651461	0.0499784594503581	142552
142.652	50	576	0	0	hanger	751	267	1	stimuli\hanger\hanger_05s.jpg	4	-1	1	0	hanger_05s.jpg	0	0.0	0	135.234020802294	135.284005844595	0.0499850423002499	142652
142.752	50	577	0	0	scaffolding	1370	268	1	stimuli\scaffolding\scaffolding_03n.jpg	2	-1	1	0	scaffolding_03n.jpg	0	0.0	0	135.334022825911	135.38400469869498	0.0499818727839738	142752
142.852	50	578	0	0	yogurt	1848	269	1	stimuli\yogurt\yogurt_08s.jpg	7	-1	1	0	yogurt_08s.jpg	0	0.0	0	135.434025824768	135.484004771839	0.0499789470704854	142852
142.952	50	579	0	0	straightjacket	1565	270	1	stimuli\straightjacket\straightjacket_06s.jpg	5	-1	1	0	straightjacket_06s.jpg	0	0.0	0	135.534031505522	135.584006551646	0.0499750461240183	142952
143.052	50	580	0	0	shoelace	1426	271	1	stimuli\shoelace\shoelace_03s.jpg	2	-1	1	0	shoelace_03s.jpg	0	0.0	0	135.634034504379	135.684021497153	0.0499869927734835	143052
143.152	50	581	0	0	goldfish	688	272	1	stimuli\goldfish\goldfish_11s.jpg	10	-1	1	0	goldfish_11s.jpg	0	0.0	0	135.734035065136	135.78401669411002	0.0499816289739101	143152
143.252	50	582	0	0	spring_roll	1521	273	1	stimuli\spring_roll\spring_roll_12s.jpg	11	-1	1	0	spring_roll_12s.jpg	0	0.0	0	135.834040989699	135.884016523443	0.0499755337441457	143252
143.352	50	583	0	0	humvee	813	274	1	stimuli\humvee\humvee_01b.jpg	0	-1	1	0	humvee_01b.jpg	0	0.0	0	135.934043257126	135.984016840397	0.0499735832709121	143352
143.452	50	584	0	0	shovel	1432	275	1	stimuli\shovel\shovel_01b.jpg	0	-1	1	0	shovel_01b.jpg	0	0.0	0	136.034040892177	136.084025690674	0.0499847984974622	143452
143.552	50	585	0	0	nest	1056	276	1	stimuli\nest\nest_03s.jpg	2	-1	1	1	nest_03s.jpg	0	0.0	0	136.13405144911698	136.18402576381	0.0499743146938272	143552
143.652	50	586	0	0	gift	672	277	1	stimuli\gift\gift_06s.jpg	5	-1	1	0	gift_06s.jpg	0	0.0	0	136.23404688988398	136.28402583695402	0.0499789470704854	143652
143.752	50	587	0	0	palette	1100	278	1	stimuli\palette\palette_09s.jpg	8	-1	1	0	palette_09s.jpg	0	0.0	0	136.334046475407	136.384032005328	0.0499855299203773	143752
143.852	50	588	0	0	boa	150	279	1	stimuli\boa\boa_12s.jpg	11	-1	1	0	boa_12s.jpg	1	0.353793074697023	1	136.43405044949802	136.484031834661	0.0499813851638464	143852
143.952	50	589	0	0	omelet	1076	280	1	stimuli\omelet\omelet_07s.jpg	6	-1	1	0	omelet_07s.jpg	0	0.0	0	136.534043939791	136.584025081145	0.0499811413537827	143952
144.052	50	590	0	0	bubble	207	281	1	stimuli\bubble\bubble_04s.jpg	3	-1	1	0	bubble_04s.jpg	0	0.0	0	136.63406668719801	136.684047828552	0.0499811413537827	144052
144.152	50	591	0	0	doorstop	512	282	1	stimuli\doorstop\doorstop_03s.jpg	2	-1	1	0	doorstop_03s.jpg	0	0.0	0	136.734070417479	136.784046195033	0.0499757775542093	144152
144.252	50	592	0	0	chips	335	283	1	stimuli\chips\chips_09s.jpg	8	-1	1	0	chips_09s.jpg	0	0.0	0	136.834069515382	136.884042123413	0.0499726080306573	144252
144.352	50	593	0	0	safety_pin	1344	284	1	stimuli\safety_pin\safety_pin_09s.jpg	8	-1	1	0	safety_pin_09s.jpg	0	0.0	0	136.934073245669	136.984036832757	0.0499635870874044	144352
144.452	50	594	0	0	stove1	1563	285	1	stimuli\stove1\stove1_05s.jpg	4	-1	1	0	stove1_05s.jpg	0	0.0	0	137.03405747121	137.08405519158998	0.0499977203799062	144452
144.552	50	595	0	0	stomach	1560	286	1	stimuli\stomach\stomach_05s.jpg	4	-1	1	0	stomach_05s.jpg	0	0.0	0	137.13408070623	137.184057702827	0.0499769965972519	144552
144.652	50	596	0	0	clasp	351	287	1	stimuli\clasp\clasp_02s.jpg	1	-1	1	0	clasp_02s.jpg	0	0.0	0	137.234080779373	137.28404973026002	0.0499689508869778	144652
144.752	50	597	0	0	laptop	897	288	1	stimuli\laptop\laptop_11s.jpg	10	-1	1	0	laptop_11s.jpg	0	0.0	0	137.334081340137	137.384064431964	0.0499830918270163	144752
144.852	50	598	0	0	ruby	1338	289	1	stimuli\ruby\ruby_01b.jpg	0	-1	1	0	ruby_01b.jpg	0	0.0	0	137.43408702089098	137.484051095598	0.0499640747075318	144852
144.952	50	599	0	0	ferret	578	290	1	stimuli\ferret\ferret_04s.jpg	3	-1	1	0	ferret_04s.jpg	0	0.0	0	137.534087094034	137.584071404905	0.0499843108700588	144952
145.052	50	600	0	0	blazer	137	291	1	stimuli\blazer\blazer_04s.jpg	3	-1	1	0	blazer_04s.jpg	0	0.0	0	137.634089361462	137.684075135185	0.049985773723165004	145052
145.152	50	601	0	0	defibrillator	477	292	1	stimuli\defibrillator\defibrillator_12s.jpg	11	-1	1	0	defibrillator_12s.jpg	0	0.0	0	137.734077975569	137.784057654062	0.0499796784934006	145152
145.252	50	602	0	0	coil	384	293	1	stimuli\coil\coil_12s.jpg	11	-1	1	0	coil_12s.jpg	0	0.0	0	137.834095359169	137.884078938616	0.0499835794471437	145252
145.352	50	603	0	0	cookie_cutter	401	294	1	stimuli\cookie_cutter\cookie_cutter_07s.jpg	6	-1	1	0	cookie_cutter_07s.jpg	0	0.0	0	137.934098114209	137.984062432726	0.0499643185175955	145352
145.452	50	604	0	0	wrist	1842	295	1	stimuli\wrist\wrist_05s.jpg	4	-1	1	0	wrist_05s.jpg	0	0.0	0	138.03408404642	138.08408249823	0.0499984518100973	145452
145.552	50	605	0	0	camper	249	296	1	stimuli\camper\camper_03s.jpg	2	-1	1	0	camper_03s.jpg	0	0.0	0	138.134103868106	138.18408476565702	0.049980897550995	145552
145.652	50	606	0	0	turtle	1736	297	1	stimuli\turtle\turtle_02s.jpg	1	-1	1	0	turtle_02s.jpg	0	0.0	0	138.234109548866	138.28408898355698	0.0499794346906128	145652
145.752	50	607	0	0	pocketknife	1207	298	1	stimuli\pocketknife\pocketknife_04s.jpg	3	-1	1	0	pocketknife_04s.jpg	0	0.0	0	138.334106696297	138.38408735003	0.0499806537336553	145752
145.852	50	608	0	0	skateboard	1449	299	1	stimuli\skateboard\skateboard_02s.jpg	1	-1	1	0	skateboard_02s.jpg	0	0.0	0	138.434111401817	138.484091324121	0.0499799223034643	145852
145.952	50	609	0	0	mask	980	300	1	stimuli\mask\mask_06s.jpg	5	-1	1	0	mask_06s.jpg	0	0.0	0	138.534112450194	138.584093591548	0.0499811413537827	145952
146.052	50	610	0	0	forklift	635	301	1	stimuli\forklift\forklift_09s.jpg	8	-1	1	0	forklift_09s.jpg	0	0.0	0	138.634115692861	138.684083668515	0.049967975653999	146052
146.152	50	611	0	0	llama	938	302	1	stimuli\llama\llama_07s.jpg	6	-1	1	0	llama_07s.jpg	0	0.0	0	138.734119179331	138.784088617838	0.0499694385071052	146152
146.252	50	612	0	0	card	271	303	1	stimuli\card\card_09s.jpg	8	-1	1	0	card_09s.jpg	0	0.0	0	138.834120715328	138.884102831922	0.0499821165940375	146252
146.352	50	613	0	0	meatloaf	990	304	1	stimuli\meatloaf\meatloaf_02s.jpg	1	-1	1	0	meatloaf_02s.jpg	0	0.0	0	138.934127127512	138.984107537435	0.0499804099235917	146352
