onset	duration	eventnumber	blocksequencenumber	isteststim	object	objectnumber	presentationnumber	sequencenumber	stim	stimnumber	teststimnumber	withinsequencenumber	istarget	stimname	response	rt	correct	time_stimon	time_stimoff	stimdur	sample
93.387	50	0	0	0	blanket	136	0	0	stimuli\blanket\blanket_02s.jpg	1	-1	0	0	blanket_02s.jpg	0	0.0	0	171.333864599932	171.383004799951	0.0491402000188828	93387
93.487	50	1	0	0	grass	705	1	0	stimuli\grass\grass_09s.jpg	8	-1	0	0	grass_09s.jpg	0	0.0	0	171.433031500084	171.483008600073	0.0499770999886096	93487
93.587	50	2	0	0	jersey	846	2	0	stimuli\jersey\jersey_09s.jpg	8	-1	0	0	jersey_09s.jpg	0	0.0	0	171.533038199879	171.583011100069	0.0499729001894593	93587
93.687	50	3	0	0	bus	226	3	0	stimuli\bus\bus_01b.jpg	0	-1	0	0	bus_01b.jpg	0	0.0	0	171.633030799916	171.683022500016	0.0499917000997812	93687
93.787	50	4	0	0	gate	662	4	0	stimuli\gate\gate_10s.jpg	9	-1	0	0	gate_10s.jpg	0	0.0	0	171.73303360003	171.783023499884	0.0499898998532444	93787
93.887	50	5	0	0	star_fruit	1540	5	0	stimuli\star_fruit\star_fruit_11s.jpg	10	-1	0	0	star_fruit_11s.jpg	0	0.0	0	171.833037599921	171.883018299937	0.0499807000160217	93887
93.987	50	6	0	0	pecan	1135	6	0	stimuli\pecan\pecan_12s.jpg	11	-1	0	0	pecan_12s.jpg	0	0.0	0	171.933039400028	171.98302110005199	0.0499817000236362	93987
94.087	50	7	0	0	nail_clippers	1047	7	0	stimuli\nail_clippers\nail_clippers_01b.jpg	0	-1	0	0	nail_clippers_01b.jpg	0	0.0	0	172.03304530005002	172.083394499961	0.0503491999115795	94087
94.187	50	8	0	0	thumbtack	1654	8	0	stimuli\thumbtack\thumbtack_10s.jpg	9	-1	0	0	thumbtack_10s.jpg	0	0.0	0	172.133046699921	172.18302550003898	0.0499788001179695	94187
94.287	50	9	0	0	beaker	101	9	0	stimuli\beaker\beaker_10s.jpg	9	-1	0	0	beaker_10s.jpg	0	0.0	0	172.233046700014	172.28302880003997	0.049982100026682	94287
94.387	50	10	0	0	scuba	1392	10	0	stimuli\scuba\scuba_04s.jpg	3	-1	0	0	scuba_04s.jpg	0	0.0	0	172.333049099892	172.383032300044	0.0499832001514733	94387
94.487	50	11	0	0	bathtub	91	11	0	stimuli\bathtub\bathtub_10s.jpg	9	-1	0	0	bathtub_10s.jpg	0	0.0	0	172.433054599911	172.483032000018	0.0499774001073092	94487
94.587	50	12	0	0	sticker	1553	12	0	stimuli\sticker\sticker_11s.jpg	10	-1	0	0	sticker_11s.jpg	0	0.0	0	172.533052699873	172.583033399889	0.0499807000160217	94587
94.687	50	13	0	0	sparkler	1507	13	0	stimuli\sparkler\sparkler_06s.jpg	5	-1	0	0	sparkler_06s.jpg	0	0.0	0	172.63307760003997	172.68303660000703	0.0499589999672025	94687
94.787	50	14	0	0	eye_patch	565	14	0	stimuli\eye_patch\eye_patch_06s.jpg	5	-1	0	0	eye_patch_06s.jpg	0	0.0	0	172.733060600003	172.783074399922	0.0500137999188155	94787
94.887	50	15	0	0	cherry	316	15	0	stimuli\cherry\cherry_05s.jpg	4	-1	0	0	cherry_05s.jpg	0	0.0	0	172.833061199868	172.88304820004902	0.0499870001804084	94887
94.987	50	16	0	0	limousine	931	16	0	stimuli\limousine\limousine_08s.jpg	7	-1	0	0	limousine_08s.jpg	0	0.0	0	172.933062500088	172.983043299988	0.0499807999003679	94987
95.087	50	17	0	0	spacesuit	1502	17	0	stimuli\spacesuit\spacesuit_04s.jpg	3	-1	0	0	spacesuit_04s.jpg	0	0.0	0	173.03306460008	173.08304639998798	0.0499817999079823	95087
95.187	50	18	0	0	baton1	92	18	0	stimuli\baton1\baton1_06s.jpg	5	-1	0	0	baton1_06s.jpg	0	0.0	0	173.133065100061	173.183048499981	0.0499833999201655	95187
95.287	50	19	0	0	razor_blade	1291	19	0	stimuli\razor_blade\razor_blade_01b.jpg	0	-1	0	0	razor_blade_01b.jpg	0	0.0	0	173.23307200008998	173.28305139998002	0.0499793998897076	95287
95.387	50	20	0	0	parachute	1118	20	0	stimuli\parachute\parachute_09s.jpg	8	-1	0	0	parachute_09s.jpg	0	0.0	0	173.333071799949	173.383073600009	0.0500018000602722	95387
95.487	50	21	0	0	mouthpiece	1032	21	0	stimuli\mouthpiece\mouthpiece_08s.jpg	7	-1	0	0	mouthpiece_08s.jpg	0	0.0	0	173.433076200075	173.48305639997102	0.0499801998957992	95487
95.587	50	22	0	0	crown	448	22	0	stimuli\crown\crown_01b.jpg	0	-1	0	0	crown_01b.jpg	0	0.0	0	173.533087699907	173.583059899975	0.0499722000677139	95587
95.687	50	23	0	0	van	1752	23	0	stimuli\van\van_08s.jpg	7	-1	0	0	van_08s.jpg	0	0.0	0	173.63307829992803	173.683060599957	0.0499823000282049	95687
95.787	50	24	0	0	wine_cooler	1825	24	0	stimuli\wine_cooler\wine_cooler_04s.jpg	3	-1	0	0	wine_cooler_04s.jpg	0	0.0	0	173.733080500038	173.78306669998	0.0499861999414861	95787
95.887	50	25	0	0	potpie	1234	25	0	stimuli\potpie\potpie_03s.jpg	2	-1	0	0	potpie_03s.jpg	0	0.0	0	173.83309000008703	173.883097500075	0.0500074999872595	95887
95.987	50	26	0	0	filing_cabinet	585	26	0	stimuli\filing_cabinet\filing_cabinet_12s.jpg	11	-1	0	0	filing_cabinet_12s.jpg	0	0.0	0	173.933088900056	173.98306889994998	0.0499799998942763	95987
96.087	50	27	0	0	pill	1174	27	0	stimuli\pill\pill_02s.jpg	1	-1	0	1	pill_02s.jpg	0	0.0	0	174.03309160005298	174.08306990005102	0.0499782999977469	96087
96.187	50	28	0	0	hawk	760	28	0	stimuli\hawk\hawk_09s.jpg	8	-1	0	0	hawk_09s.jpg	0	0.0	0	174.133092399919	174.183073600056	0.0499812001362443	96187
96.287	50	29	0	0	ice_cube	819	29	0	stimuli\ice_cube\ice_cube_05s.jpg	4	-1	0	0	ice_cube_05s.jpg	0	0.0	0	174.23309429991102	174.28307619993598	0.0499819000251591	96287
96.387	50	30	0	0	bamboo	62	30	0	stimuli\bamboo\bamboo_12s.jpg	11	-1	0	0	bamboo_12s.jpg	0	0.0	0	174.333095700014	174.383078400046	0.0499827000312507	96387
96.487	50	31	0	0	doorknob	509	31	0	stimuli\doorknob\doorknob_08s.jpg	7	-1	0	0	doorknob_08s.jpg	0	0.0	0	174.433098899899	174.483079500031	0.0499806001316756	96487
96.587	50	32	0	0	soap	1487	32	0	stimuli\soap\soap_03s.jpg	2	-1	0	0	soap_03s.jpg	0	0.0	0	174.533102399902	174.58308360003898	0.0499812001362443	96587
96.687	50	33	0	0	casserole	282	33	0	stimuli\casserole\casserole_11s.jpg	10	-1	0	0	casserole_11s.jpg	0	0.0	0	174.633107499918	174.68308630003602	0.0499788001179695	96687
96.787	50	34	0	0	breadstick	196	34	0	stimuli\breadstick\breadstick_03s.jpg	2	-1	0	0	breadstick_03s.jpg	0	0.0	0	174.733105899999	174.783102399902	0.0499964999035001	96787
96.887	50	35	0	0	keg	866	35	0	stimuli\keg\keg_10s.jpg	9	-1	0	0	keg_10s.jpg	0	0.0	0	174.833108999999	174.883088900009	0.0499799000099301	96887
96.987	50	36	0	0	sofa_bed	1492	36	0	stimuli\sofa_bed\sofa_bed_10s.jpg	9	-1	0	0	sofa_bed_10s.jpg	0	0.0	0	174.933111899998	174.98309169989102	0.0499797998927534	96987
97.087	50	37	0	0	hearing_aid	770	37	0	stimuli\hearing_aid\hearing_aid_07s.jpg	6	-1	0	0	hearing_aid_07s.jpg	0	0.0	0	175.033112699864	175.083095500013	0.0499828001484275	97087
97.187	50	38	0	0	gearshift	668	38	0	stimuli\gearshift\gearshift_11n.jpg	10	-1	0	0	gearshift_11n.jpg	0	0.0	0	175.133115599863	175.183095999993	0.0499804001301527	97187
97.287	50	39	0	0	suitcase	1581	39	0	stimuli\suitcase\suitcase_11s.jpg	10	-1	0	0	suitcase_11s.jpg	0	0.0	0	175.233118099859	175.28310130001	0.0499832001514733	97287
97.387	50	40	0	0	hair	733	40	0	stimuli\hair\hair_09s.jpg	8	-1	0	0	hair_09s.jpg	0	0.0	0	175.333121999865	175.38310209987702	0.049980100011453	97387
97.487	50	41	0	0	eggnog	549	41	0	stimuli\eggnog\eggnog_11s.jpg	10	-1	0	0	eggnog_11s.jpg	0	0.0	0	175.43312290008203	175.48310449998797	0.0499815999064595	97487
97.587	50	42	0	0	rust	1342	42	0	stimuli\rust\rust_08s.jpg	7	-1	0	0	rust_08s.jpg	0	0.0	0	175.53312779986302	175.583106599981	0.0499788001179695	97587
97.687	50	43	0	0	ice	816	43	0	stimuli\ice\ice_03s.jpg	2	-1	0	0	ice_03s.jpg	0	0.0	0	175.633130599977	175.683110999875	0.0499803998973221	97687
97.787	50	44	0	0	purse	1259	44	0	stimuli\purse\purse_02s.jpg	1	-1	0	0	purse_02s.jpg	0	0.0	0	175.733130499953	175.78311349987098	0.0499829999171197	97787
97.887	50	45	0	0	racket	1270	45	0	stimuli\racket\racket_05s.jpg	4	-1	0	0	racket_05s.jpg	0	0.0	0	175.83313270006303	175.883115399862	0.0499826997984201	97887
97.987	50	46	0	0	beaver	107	46	0	stimuli\beaver\beaver_06s.jpg	5	-1	0	0	beaver_06s.jpg	0	0.0	0	175.933136200067	175.98311999999	0.0499837999232113	97987
98.087	50	47	0	0	sandbox	1354	47	0	stimuli\sandbox\sandbox_09s.jpg	8	-1	0	0	sandbox_09s.jpg	0	0.0	0	176.033137500053	176.083119800081	0.0499823000282049	98087
98.187	50	48	0	0	jellyfish	845	48	0	stimuli\jellyfish\jellyfish_10s.jpg	9	-1	0	0	jellyfish_10s.jpg	0	0.0	0	176.133140499936	176.183121399954	0.0499809000175446	98187
98.287	50	49	0	0	shaker	1408	49	0	stimuli\shaker\shaker_08s.jpg	7	-1	0	0	shaker_08s.jpg	0	0.0	0	176.233143100049	176.28312340006198	0.0499803000129759	98287
98.387	50	50	0	0	paper_plate	1114	50	0	stimuli\paper_plate\paper_plate_12s.jpg	11	-1	0	0	paper_plate_12s.jpg	0	0.0	0	176.33314489992298	176.38312599994202	0.0499811000190675	98387
98.487	50	51	0	0	puppet	1257	51	0	stimuli\puppet\puppet_06s.jpg	5	-1	0	0	puppet_06s.jpg	0	0.0	0	176.433147599921	176.483129800064	0.0499822001438588	98487
98.587	50	52	0	0	couch	422	52	0	stimuli\couch\couch_08n.jpg	7	-1	0	0	couch_08n.jpg	0	0.0	0	176.533149000024	176.583135900088	0.0499869000632316	98587
98.687	50	53	0	0	rooster	1330	53	0	stimuli\rooster\rooster_05s.jpg	4	-1	0	0	rooster_05s.jpg	0	0.0	0	176.63317189994302	176.683133699931	0.0499617999885231	98687
98.787	50	54	0	0	submarine	1577	54	0	stimuli\submarine\submarine_07s.jpg	6	-1	0	0	submarine_07s.jpg	0	0.0	0	176.73315260000498	176.78313579992403	0.0499831999186426	98787
98.887	50	55	0	0	bison	134	55	0	stimuli\bison\bison_07n.jpg	6	-1	0	0	bison_07n.jpg	0	0.0	0	176.83315899991402	176.883140099933	0.0499811000190675	98887
98.987	50	56	0	0	pepperoni	1153	56	0	stimuli\pepperoni\pepperoni_07s.jpg	6	-1	0	0	pepperoni_07s.jpg	0	0.0	0	176.93315920000902	176.983142199926	0.0499829999171197	98987
99.087	50	57	0	0	drum	522	57	0	stimuli\drum\drum_05s.jpg	4	-1	0	0	drum_05s.jpg	0	0.0	0	177.033164700028	177.083141499897	0.0499767998699099	99087
99.187	50	58	0	0	panties	1107	58	0	stimuli\panties\panties_01b.jpg	0	-1	0	0	panties_01b.jpg	0	0.0	0	177.13316509989102	177.183144799899	0.0499797000084072	99187
99.287	50	59	0	0	pony	1220	59	0	stimuli\pony\pony_12s.jpg	11	-1	0	0	pony_12s.jpg	0	0.0	0	177.233166499995	177.283146800008	0.0499803000129759	99287
99.387	50	60	0	0	owl	1091	60	0	stimuli\owl\owl_11s.jpg	10	-1	0	0	owl_11s.jpg	0	0.0	0	177.333169799997	177.38315019989398	0.0499803998973221	99387
99.487	50	61	0	0	fuse	652	61	0	stimuli\fuse\fuse_12s.jpg	11	-1	0	0	fuse_12s.jpg	0	0.0	0	177.433172099991	177.48315320001	0.0499811000190675	99487
99.587	50	62	0	0	carrot	277	62	0	stimuli\carrot\carrot_06n.jpg	5	-1	0	0	carrot_06n.jpg	0	0.0	0	177.53317429986802	177.583154199878	0.0499799000099301	99587
99.687	50	63	0	0	microphone	998	63	0	stimuli\microphone\microphone_06s.jpg	5	-1	0	0	microphone_06s.jpg	0	0.0	0	177.63317909999802	177.68315769988098	0.049978599883616	99687
99.787	50	64	0	0	crystal_ball	455	64	0	stimuli\crystal_ball\crystal_ball_09s.jpg	8	-1	0	0	crystal_ball_09s.jpg	0	0.0	0	177.73317979998	177.78316150000302	0.0499817000236362	99787
99.887	50	65	0	0	wick	1815	65	0	stimuli\wick\wick_05s.jpg	4	-1	0	0	wick_05s.jpg	0	0.0	0	177.83318209997398	177.883162999991	0.0499809000175446	99887
99.987	50	66	0	0	wax_paper	1796	66	0	stimuli\wax_paper\wax_paper_07s.jpg	6	-1	0	0	wax_paper_07s.jpg	0	0.0	0	177.93318210006697	177.983166199876	0.0499840998090804	99987
100.087	50	67	0	0	place_mat	1193	67	0	stimuli\place_mat\place_mat_08s.jpg	7	-1	0	0	place_mat_08s.jpg	0	0.0	0	178.033185000066	178.083169999998	0.0499849999323487	100087
100.187	50	68	0	0	lantern	895	68	0	stimuli\lantern\lantern_03s.jpg	2	-1	0	0	lantern_03s.jpg	0	0.0	0	178.133188500069	178.18317670002602	0.0499881999567151	100187
100.287	50	69	0	0	pumpkin	1253	69	0	stimuli\pumpkin\pumpkin_04s.jpg	3	-1	0	0	pumpkin_04s.jpg	0	0.0	0	178.233191899955	178.283196700038	0.0500048000831157	100287
100.387	50	70	0	0	milkshake	1002	70	0	stimuli\milkshake\milkshake_03s.jpg	2	-1	0	0	milkshake_03s.jpg	0	0.0	0	178.333191999933	178.383173899958	0.0499819000251591	100387
100.487	50	71	0	0	shell3	1419	71	0	stimuli\shell3\shell3_09s.jpg	8	-1	0	0	shell3_09s.jpg	0	0.0	0	178.43319560005298	178.483178900089	0.0499833000358194	100487
100.587	50	72	0	0	shrimp	1438	72	0	stimuli\shrimp\shrimp_02s.jpg	1	-1	0	0	shrimp_02s.jpg	0	0.0	0	178.53320489986802	178.583179899957	0.0499750000890344	100587
100.687	50	73	0	0	moth	1023	73	0	stimuli\moth\moth_09n.jpg	8	-1	0	0	moth_09n.jpg	0	0.0	0	178.63320309994702	178.683190600015	0.0499875000678003	100687
100.787	50	74	0	0	stove1	1563	74	0	stimuli\stove1\stove1_11s.jpg	10	-1	0	0	stove1_11s.jpg	0	0.0	0	178.733203900047	178.78318480006402	0.0499809000175446	100787
100.887	50	75	0	0	helmet	776	75	0	stimuli\helmet\helmet_01b.jpg	0	-1	0	0	helmet_01b.jpg	0	0.0	0	178.83320740005001	178.88318690005698	0.0499795000068843	100887
100.987	50	76	0	0	eggshell	551	76	0	stimuli\eggshell\eggshell_04s.jpg	3	-1	0	0	eggshell_04s.jpg	0	0.0	0	178.933207799913	178.983188099926	0.0499803000129759	100987
101.087	50	77	0	0	swab	1590	77	0	stimuli\swab\swab_11s.jpg	10	-1	0	0	swab_11s.jpg	0	0.0	0	179.033237499883	179.08319259993698	0.0499551000539213	101087
101.187	50	78	0	0	sheath	1413	78	0	stimuli\sheath\sheath_10s.jpg	9	-1	0	0	sheath_10s.jpg	0	0.0	0	179.133212399902	179.18319380004	0.0499814001377672	101187
101.287	50	79	0	0	parsley	1122	79	0	stimuli\parsley\parsley_12n.jpg	11	-1	0	0	parsley_12n.jpg	0	0.0	0	179.23321780003602	179.28319730004299	0.0499795000068843	101287
101.387	50	80	0	0	axe	45	80	0	stimuli\axe\axe_12n.jpg	11	-1	0	0	axe_12n.jpg	0	0.0	0	179.333217399893	179.383198200027	0.0499808001331985	101387
101.487	50	81	0	0	pantyhose	1110	81	0	stimuli\pantyhose\pantyhose_11s.jpg	10	-1	0	0	pantyhose_11s.jpg	0	0.0	0	179.43321889988098	179.48320059990502	0.0499817000236362	101487
101.587	50	82	0	0	champagne	304	82	0	stimuli\champagne\champagne_08s.jpg	7	-1	0	0	champagne_08s.jpg	0	0.0	0	179.533221499994	179.58320749993402	0.0499859999399632	101587
101.687	50	83	0	0	anklet	23	83	0	stimuli\anklet\anklet_02s.jpg	1	-1	0	0	anklet_02s.jpg	0	0.0	0	179.633248399943	179.683206599904	0.0499581999611109	101687
101.787	50	84	0	0	cordon_bleu	408	84	0	stimuli\cordon_bleu\cordon_bleu_09s.jpg	8	-1	0	0	cordon_bleu_09s.jpg	0	0.0	0	179.733226899989	179.783218999859	0.0499920998699963	101787
101.887	50	85	0	0	bouquet	173	85	0	stimuli\bouquet\bouquet_01b.jpg	0	-1	0	0	bouquet_01b.jpg	0	0.0	0	179.83323069987802	179.883210300002	0.0499796001240611	101887
101.987	50	86	0	0	urinal	1748	86	0	stimuli\urinal\urinal_10s.jpg	9	-1	0	0	urinal_10s.jpg	0	0.0	0	179.93323299987202	179.983213200001	0.0499802001286298	101987
102.087	50	87	0	0	traffic_light	1696	87	0	stimuli\traffic_light\traffic_light_10s.jpg	9	-1	0	0	traffic_light_10s.jpg	0	0.0	0	180.033235499868	180.083217599895	0.049982100026682	102087
102.187	50	88	0	0	fly	621	88	0	stimuli\fly\fly_11s.jpg	10	-1	0	0	fly_11s.jpg	0	0.0	0	180.133263400057	180.18321779999002	0.0499543999321759	102187
102.287	50	89	0	0	bird	128	89	0	stimuli\bird\bird_04s.jpg	3	-1	0	0	bird_04s.jpg	0	0.0	0	180.233241699869	180.283220299985	0.0499786001164466	102287
102.387	50	90	0	0	bedpan	109	90	0	stimuli\bedpan\bedpan_05s.jpg	4	-1	0	0	bedpan_05s.jpg	0	0.0	0	180.333241200075	180.383228899911	0.0499876998364925	102387
102.487	50	91	0	0	washboard	1782	91	0	stimuli\washboard\washboard_02s.jpg	1	-1	0	0	washboard_02s.jpg	0	0.0	0	180.43324619997298	180.48322579986402	0.0499795998912305	102487
102.587	50	92	0	0	warthog	1781	92	0	stimuli\warthog\warthog_03s.jpg	2	-1	0	0	warthog_03s.jpg	0	0.0	0	180.53325870004502	180.583230199991	0.0499714999459684	102587
102.687	50	93	0	0	headphones	766	93	0	stimuli\headphones\headphones_04s.jpg	3	-1	0	0	headphones_04s.jpg	0	0.0	0	180.63325309986197	180.683230299968	0.0499772001057863	102687
102.787	50	94	0	0	shirt	1422	94	0	stimuli\shirt\shirt_03s.jpg	2	-1	0	0	shirt_03s.jpg	0	0.0	0	180.733268300071	180.78323270008	0.0499644000083208	102787
102.887	50	95	0	0	sardine	1359	95	0	stimuli\sardine\sardine_11s.jpg	10	-1	0	0	sardine_11s.jpg	0	0.0	0	180.83325430005797	180.883265600074	0.0500113000161946	102887
102.987	50	96	0	0	belt_buckle	119	96	0	stimuli\belt_buckle\belt_buckle_07s.jpg	6	-1	0	0	belt_buckle_07s.jpg	0	0.0	0	180.93325860006698	180.983237700071	0.0499791000038385	102987
103.087	50	97	0	0	wasp	1785	97	0	stimuli\wasp\wasp_01b.jpg	0	-1	0	0	wasp_01b.jpg	0	0.0	0	181.03326279996003	181.083242000081	0.0499792001210153	103087
103.187	50	98	0	0	urn	1749	98	0	stimuli\urn\urn_09s.jpg	8	-1	0	0	urn_09s.jpg	0	0.0	0	181.133263400057	181.18325500004	0.0499915999826044	103187
103.287	50	99	0	0	generator	671	99	0	stimuli\generator\generator_04s.jpg	3	-1	0	0	generator_04s.jpg	0	0.0	0	181.23326339991797	181.28324720007402	0.049983800156042	103287
103.387	50	100	0	0	tulip	1726	100	0	stimuli\tulip\tulip_03s.jpg	2	-1	0	0	tulip_03s.jpg	0	0.0	0	181.33326549991	181.383246599929	0.0499811000190675	103387
103.487	50	101	0	0	boar	151	101	0	stimuli\boar\boar_09s.jpg	8	-1	0	0	boar_09s.jpg	0	0.0	0	181.433271799935	181.48326490004501	0.0499931001104414	103487
103.587	50	102	0	0	margarita	973	102	0	stimuli\margarita\margarita_11s.jpg	10	-1	0	0	margarita_11s.jpg	0	0.0	0	181.53326980001302	181.58325279993	0.0499829999171197	103587
103.687	50	103	0	0	computer_screen	395	103	0	stimuli\computer_screen\computer_screen_02s.jpg	1	-1	0	0	computer_screen_02s.jpg	0	0.0	0	181.633293099934	181.683253899915	0.0499607999809086	103687
103.787	50	104	0	0	stockings	1559	104	0	stimuli\stockings\stockings_09s.jpg	8	-1	0	0	stockings_09s.jpg	0	0.0	0	181.73327709990602	181.783256599912	0.0499795000068843	103787
103.887	50	105	0	0	kimono	873	105	0	stimuli\kimono\kimono_03s.jpg	2	-1	0	0	kimono_03s.jpg	0	0.0	0	181.83327990002	181.883272399893	0.0499924998730421	103887
103.987	50	106	0	0	flan	609	106	0	stimuli\flan\flan_02s.jpg	1	-1	0	0	flan_02s.jpg	0	0.0	0	181.933280699886	181.983272499871	0.0499917999841273	103987
104.087	50	107	0	0	slipper	1468	107	0	stimuli\slipper\slipper_08s.jpg	7	-1	0	0	slipper_08s.jpg	0	0.0	0	182.03328309999802	182.08326480002103	0.0499817000236362	104087
104.187	50	108	0	0	measuring_cup	986	108	0	stimuli\measuring_cup\measuring_cup_08s.jpg	7	-1	0	0	measuring_cup_08s.jpg	0	0.0	0	182.133287000004	182.183266700013	0.0499797000084072	104187
104.287	50	109	0	0	chicken_wire	324	109	0	stimuli\chicken_wire\chicken_wire_11s.jpg	10	-1	0	0	chicken_wire_11s.jpg	0	0.0	0	182.233300199965	182.28326829988498	0.0499680999200791	104287
104.387	50	110	0	0	dustpan	535	110	0	stimuli\dustpan\dustpan_09s.jpg	8	-1	0	0	dustpan_09s.jpg	0	0.0	0	182.333291699877	182.38328519999	0.0499935001134872	104387
104.487	50	111	0	0	latch	900	111	0	stimuli\latch\latch_10s.jpg	9	-1	0	0	latch_10s.jpg	0	0.0	0	182.43329219985802	182.483274099883	0.0499819000251591	104487
104.587	50	112	0	0	gramophone	699	112	0	stimuli\gramophone\gramophone_09s.jpg	8	-1	0	0	gramophone_09s.jpg	0	0.0	0	182.533296499867	182.583276199875	0.0499797000084072	104587
104.687	50	113	0	0	buggy	213	113	0	stimuli\buggy\buggy_05s.jpg	4	-1	0	0	buggy_05s.jpg	0	0.0	0	182.63329700008	182.68327809986698	0.0499810997862369	104687
104.787	50	114	0	0	buckle	210	114	0	stimuli\buckle\buckle_09s.jpg	8	-1	0	0	buckle_09s.jpg	0	0.0	0	182.73334779986197	182.783281699987	0.0499339001253247	104787
104.887	50	115	0	0	slide	1464	115	0	stimuli\slide\slide_12s.jpg	11	-1	0	0	slide_12s.jpg	0	0.0	0	182.83330329996497	182.88328299997397	0.0499797000084072	104887
104.987	50	116	0	0	ironing_board	833	116	0	stimuli\ironing_board\ironing_board_01b.jpg	0	-1	0	0	ironing_board_01b.jpg	0	0.0	0	182.933305900078	182.98328549996899	0.0499795998912305	104987
105.087	50	117	0	0	modem	1011	117	0	stimuli\modem\modem_09s.jpg	8	-1	0	0	modem_09s.jpg	0	0.0	0	183.03330580005402	183.08328650007	0.0499807000160217	105087
105.187	50	118	0	0	lip_balm	934	118	0	stimuli\lip_balm\lip_balm_02s.jpg	1	-1	0	0	lip_balm_02s.jpg	0	0.0	0	183.13330939994202	183.183290899964	0.0499815000221133	105187
105.287	50	119	0	0	rosary	1333	119	0	stimuli\rosary\rosary_08s.jpg	7	-1	0	0	rosary_08s.jpg	0	0.0	0	183.233311000047	183.283292700071	0.0499817000236362	105287
105.387	50	120	0	0	bra	185	120	0	stimuli\bra\bra_11s.jpg	10	-1	0	1	bra_11s.jpg	0	0.0	0	183.333340300014	183.38329480006402	0.0499545000493526	105387
105.487	50	121	0	0	scissors	1379	121	0	stimuli\scissors\scissors_10s.jpg	9	-1	0	0	scissors_10s.jpg	0	0.0	0	183.433316899929	183.483322100015	0.0500052000861615	105487
105.587	50	122	0	0	power_line	1237	122	0	stimuli\power_line\power_line_05s.jpg	4	-1	0	0	power_line_05s.jpg	0	0.0	0	183.53332079993598	183.583301699953	0.0499809000175446	105587
105.687	50	123	0	0	blowfish	146	123	0	stimuli\blowfish\blowfish_02s.jpg	1	-1	0	0	blowfish_02s.jpg	0	0.0	0	183.63332469994202	183.68330339994301	0.0499787000007927	105687
105.787	50	124	0	0	roller	1324	124	0	stimuli\roller\roller_05s.jpg	4	-1	0	0	roller_05s.jpg	1	0.441952500026673	1	183.73332399991298	183.78330660006	0.0499826001469046	105787
105.887	50	125	0	0	dartboard	474	125	0	stimuli\dartboard\dartboard_10s.jpg	9	-1	0	0	dartboard_10s.jpg	0	0.0	0	183.833326699911	183.883307199925	0.0499805000144988	105887
105.987	50	126	0	0	doll	499	126	0	stimuli\doll\doll_11s.jpg	10	-1	0	0	doll_11s.jpg	0	0.0	0	183.933330700034	183.983311000047	0.0499803000129759	105987
106.087	50	127	0	0	turtleneck	1737	127	0	stimuli\turtleneck\turtleneck_05s.jpg	4	-1	0	0	turtleneck_05s.jpg	0	0.0	0	184.033331499901	184.08332400000702	0.0499925001058728	106087
106.187	50	128	0	0	gopher	694	128	0	stimuli\gopher\gopher_05s.jpg	4	-1	0	0	gopher_05s.jpg	0	0.0	0	184.13333399989602	184.183314600028	0.0499806001316756	106187
106.287	50	129	0	0	okra	1074	129	0	stimuli\okra\okra_10s.jpg	9	-1	0	0	okra_10s.jpg	0	0.0	0	184.233348499984	184.28331919992297	0.0499706999398768	106287
106.387	50	130	0	0	periscope	1155	130	0	stimuli\periscope\periscope_06s.jpg	5	-1	0	0	periscope_06s.jpg	0	0.0	0	184.333339500008	184.383320200024	0.0499807000160217	106387
106.487	50	131	0	0	ambulance	19	131	0	stimuli\ambulance\ambulance_11s.jpg	10	-1	0	0	ambulance_11s.jpg	0	0.0	0	184.433340999996	184.48332290002102	0.0499819000251591	106487
106.587	50	132	0	0	scaffold	1369	132	0	stimuli\scaffold\scaffold_03s.jpg	2	-1	0	0	scaffold_03s.jpg	0	0.0	0	184.53334309998903	184.583355099894	0.0500119999051094	106587
106.687	50	133	0	0	clove	365	133	0	stimuli\clove\clove_08s.jpg	7	-1	0	0	clove_08s.jpg	0	0.0	0	184.633345299866	184.68332509999198	0.049979800125584006	106687
106.787	50	134	0	0	hay	761	134	0	stimuli\hay\hay_08s.jpg	7	-1	0	0	hay_08s.jpg	0	0.0	0	184.733349399874	184.78332940000098	0.0499800001271069	106787
106.887	50	135	0	0	hairpin	737	135	0	stimuli\hairpin\hairpin_08s.jpg	7	-1	0	0	hairpin_08s.jpg	0	0.0	0	184.833353800001	184.88333179987998	0.0499779998790473	106887
106.987	50	136	0	0	tweezers	1739	136	0	stimuli\tweezers\tweezers_09s.jpg	8	-1	0	0	tweezers_09s.jpg	0	0.0	0	184.933352099964	184.983336400008	0.0499843000434339	106987
107.087	50	137	0	0	weed	1802	137	0	stimuli\weed\weed_07s.jpg	6	-1	0	0	weed_07s.jpg	0	0.0	0	185.033356199972	185.08333749999298	0.0499813000205904	107087
107.187	50	138	0	0	snowman	1482	138	0	stimuli\snowman\snowman_07s.jpg	6	-1	0	0	snowman_07s.jpg	0	0.0	0	185.13335709995602	185.183353200089	0.0499961001332849	107187
107.287	50	139	0	0	cake_mix	238	139	0	stimuli\cake_mix\cake_mix_05s.jpg	4	-1	0	0	cake_mix_05s.jpg	0	0.0	0	185.23335990007	185.283342899987	0.0499829999171197	107287
107.387	50	140	0	0	clipper1	356	140	0	stimuli\clipper1\clipper1_12s.jpg	11	-1	0	0	clipper1_12s.jpg	0	0.0	0	185.333395099966	185.383345199982	0.0499501000158489	107387
107.487	50	141	0	0	polisher	1215	141	0	stimuli\polisher\polisher_12s.jpg	11	-1	0	0	polisher_12s.jpg	0	0.0	0	185.43336430005698	185.48334560007802	0.0499813000205904	107487
107.587	50	142	0	0	ear	538	142	0	stimuli\ear\ear_11s.jpg	10	-1	0	0	ear_11s.jpg	0	0.0	0	185.53336760005902	185.583362200065	0.0499946000054479	107587
107.687	50	143	0	0	stethoscope	1550	143	0	stimuli\stethoscope\stethoscope_10s.jpg	9	-1	0	0	stethoscope_10s.jpg	0	0.0	0	185.633369799936	185.683350000065	0.0499802001286298	107687
107.787	50	144	0	0	pool_table	1222	144	0	stimuli\pool_table\pool_table_01s.jpg	0	-1	0	0	pool_table_01s.jpg	0	0.0	0	185.733373099938	185.783352799946	0.0499797000084072	107787
107.887	50	145	0	0	knee	877	145	0	stimuli\knee\knee_05s.jpg	4	-1	0	0	knee_05s.jpg	0	0.0	0	185.83337559993402	185.88335569994499	0.049980100011453	107887
107.987	50	146	0	0	bookmark	166	146	0	stimuli\bookmark\bookmark_08s.jpg	7	-1	0	0	bookmark_08s.jpg	0	0.0	0	185.933391199913	185.983358399943	0.0499672000296414	107987
108.087	50	147	0	0	dryer	524	147	0	stimuli\dryer\dryer_05s.jpg	4	-1	0	0	dryer_05s.jpg	0	0.0	0	186.033380300039	186.083376300056	0.0499960000161082	108087
108.187	50	148	0	0	sweet_potato	1595	148	0	stimuli\sweet_potato\sweet_potato_03s.jpg	2	-1	0	0	sweet_potato_03s.jpg	0	0.0	0	186.13338360004101	186.18336470006	0.0499811000190675	108187
108.287	50	149	0	0	trough	1718	149	0	stimuli\trough\trough_08s.jpg	7	-1	0	0	trough_08s.jpg	0	0.0	0	186.233382999897	186.283371200087	0.0499882001895458	108287
108.387	50	150	0	0	skateboard	1449	150	0	stimuli\skateboard\skateboard_09s.jpg	8	-1	0	0	skateboard_09s.jpg	0	0.0	0	186.333386899903	186.38337310007802	0.0499862001743168	108387
108.487	50	151	0	0	scrabble	1385	151	0	stimuli\scrabble\scrabble_07s.jpg	6	-1	0	0	scrabble_07s.jpg	0	0.0	0	186.433426900068	186.48336980002898	0.0499428999610245	108487
108.587	50	152	0	0	turf	1732	152	0	stimuli\turf\turf_07s.jpg	6	-1	0	0	turf_07s.jpg	0	0.0	0	186.53339140000801	186.58337350003399	0.049982100026682	108587
108.687	50	153	0	0	nightstand	1059	153	0	stimuli\nightstand\nightstand_12s.jpg	11	-1	0	0	nightstand_12s.jpg	0	0.0	0	186.633394100005	186.683375400025	0.0499813000205904	108687
108.787	50	154	0	0	snorkel	1478	154	0	stimuli\snorkel\snorkel_07s.jpg	6	-1	0	0	snorkel_07s.jpg	0	0.0	0	186.73339499998798	186.78337859991	0.0499835999216884	108787
108.887	50	155	0	0	carousel	275	155	0	stimuli\carousel\carousel_05s.jpg	4	-1	0	0	carousel_05s.jpg	0	0.0	0	186.833398899995	186.88338040001702	0.0499815000221133	108887
108.987	50	156	0	0	lion	933	156	0	stimuli\lion\lion_01b.jpg	0	-1	0	0	lion_01b.jpg	0	0.0	0	186.933402699884	186.98338410002202	0.0499814001377672	108987
109.087	50	157	0	0	satellite_dish	1361	157	0	stimuli\satellite_dish\satellite_dish_05s.jpg	4	-1	0	0	satellite_dish_05s.jpg	0	0.0	0	187.033419199986	187.083384800004	0.0499656000174582	109087
109.187	50	158	0	0	can	250	158	0	stimuli\can\can_04s.jpg	3	-1	0	0	can_04s.jpg	0	0.0	0	187.133406399982	187.183414999861	0.0500085998792201	109187
109.287	50	159	0	0	straw1	1568	159	0	stimuli\straw1\straw1_08s.jpg	7	-1	0	0	straw1_08s.jpg	0	0.0	0	187.233408399858	187.28338989987998	0.0499815000221133	109287
109.387	50	160	0	0	petal	1158	160	0	stimuli\petal\petal_11s.jpg	10	-1	0	0	petal_11s.jpg	0	0.0	0	187.333411100088	187.383395300014	0.0499841999262571	109387
109.487	50	161	0	0	luggage	948	161	0	stimuli\luggage\luggage_06s.jpg	5	-1	0	0	luggage_06s.jpg	0	0.0	0	187.43341429997201	187.483395099873	0.0499807999003679	109487
109.587	50	162	0	0	pig	1170	162	0	stimuli\pig\pig_12s.jpg	11	-1	0	0	pig_12s.jpg	0	0.0	0	187.53341579996	187.58339669997798	0.0499809000175446	109587
109.687	50	163	0	0	cap	265	163	0	stimuli\cap\cap_06s.jpg	5	-1	0	0	cap_06s.jpg	0	0.0	0	187.63341800007	187.68339969986098	0.0499816997908056	109687
109.787	50	164	0	0	spinach	1515	164	0	stimuli\spinach\spinach_06s.jpg	5	-1	0	0	spinach_06s.jpg	0	0.0	0	187.733420500066	187.783417399973	0.0499968999065459	109787
109.887	50	165	0	0	sandbag	1353	165	0	stimuli\sandbag\sandbag_04s.jpg	3	-1	0	0	sandbag_04s.jpg	0	0.0	0	187.83342340006502	187.88340350007599	0.049980100011453	109887
109.987	50	166	0	0	hearse	771	166	0	stimuli\hearse\hearse_06s.jpg	5	-1	0	0	hearse_06s.jpg	0	0.0	0	187.933439200046	187.983406899963	0.0499676999170333	109987
110.087	50	167	0	0	pump	1252	167	0	stimuli\pump\pump_01b.jpg	0	-1	0	0	pump_01b.jpg	0	0.0	0	188.03342780005198	188.083411799977	0.0499839999247342	110087
110.187	50	168	0	0	bag	54	168	0	stimuli\bag\bag_07s.jpg	6	-1	0	0	bag_07s.jpg	0	0.0	0	188.133432199946	188.18341629998798	0.049984100041911	110187
110.287	50	169	0	0	drumstick	523	169	0	stimuli\drumstick\drumstick_09s.jpg	8	-1	0	0	drumstick_09s.jpg	0	0.0	0	188.23343249992502	188.283428600058	0.0499961001332849	110287
110.387	50	170	0	0	yarn	1846	170	0	stimuli\yarn\yarn_11s.jpg	10	-1	0	0	yarn_11s.jpg	0	0.0	0	188.333436399931	188.38341700006302	0.0499806001316756	110387
110.487	50	171	0	0	bush	227	171	0	stimuli\bush\bush_10s.jpg	9	-1	0	0	bush_10s.jpg	0	0.0	0	188.43343780003502	188.483421500074	0.0499837000388652	110487
110.587	50	172	0	0	grapefruit	703	172	0	stimuli\grapefruit\grapefruit_05s.jpg	4	-1	0	0	grapefruit_05s.jpg	0	0.0	0	188.53344150003997	188.583421600051	0.049980100011453	110587
110.687	50	173	0	0	possum	1228	173	0	stimuli\possum\possum_02s.jpg	1	-1	0	0	possum_02s.jpg	0	0.0	0	188.63344280002602	188.68342490005298	0.049982100026682	110687
110.787	50	174	0	0	towel_rack	1693	174	0	stimuli\towel_rack\towel_rack_12s.jpg	11	-1	0	0	towel_rack_12s.jpg	0	0.0	0	188.73344510002102	188.783425200032	0.049980100011453	110787
110.887	50	175	0	0	french_fries	641	175	0	stimuli\french_fries\french_fries_02s.jpg	1	-1	0	0	french_fries_02s.jpg	0	0.0	0	188.833448400022	188.883427799912	0.0499793998897076	110887
110.987	50	176	0	0	ketchup	867	176	0	stimuli\ketchup\ketchup_09s.jpg	8	-1	0	0	ketchup_09s.jpg	0	0.0	0	188.933449900011	188.98343349993198	0.0499835999216884	110987
111.087	50	177	0	0	snowball	1480	177	0	stimuli\snowball\snowball_05s.jpg	4	-1	0	0	snowball_05s.jpg	0	0.0	0	189.03347999998402	189.083433199907	0.0499531999230385	111087
111.187	50	178	0	0	rolling_pin	1328	178	0	stimuli\rolling_pin\rolling_pin_03s.jpg	2	-1	0	0	rolling_pin_03s.jpg	0	0.0	0	189.13346070004602	189.18343529989897	0.049974599853158	111187
111.287	50	179	0	0	noose	1062	179	0	stimuli\noose\noose_01b.jpg	0	-1	0	0	noose_01b.jpg	0	0.0	0	189.233455999987	189.283450299874	0.0499942998867482	111287
111.387	50	180	0	0	orange_rind	1079	180	0	stimuli\orange_rind\orange_rind_09s.jpg	8	-1	0	0	orange_rind_09s.jpg	0	0.0	0	189.333462199895	189.383440400008	0.0499782001134008	111387
111.487	50	181	0	0	pan	1103	181	0	stimuli\pan\pan_11s.jpg	10	-1	0	0	pan_11s.jpg	0	0.0	0	189.43347859987998	189.483442500001	0.0499639001209289	111487
111.587	50	182	0	0	soldering_iron	1494	182	0	stimuli\soldering_iron\soldering_iron_12s.jpg	11	-1	0	0	soldering_iron_12s.jpg	0	0.0	0	189.533465299988	189.583446400007	0.0499811000190675	111587
111.687	50	183	0	0	dice	486	183	0	stimuli\dice\dice_05s.jpg	4	-1	0	0	dice_05s.jpg	0	0.0	0	189.633484199876	189.683447199874	0.0499629999976605	111687
111.787	50	184	0	0	aluminum_foil	17	184	0	stimuli\aluminum_foil\aluminum_foil_12s.jpg	11	-1	0	0	aluminum_foil_12s.jpg	0	0.0	0	189.73346780007702	189.783463000087	0.0499952000100166	111787
111.887	50	185	0	0	curling_iron	463	185	0	stimuli\curling_iron\curling_iron_11s.jpg	10	-1	0	0	curling_iron_11s.jpg	0	0.0	0	189.833472399972	189.883454099996	0.0499817000236362	111887
111.987	50	186	0	0	banjo	68	186	0	stimuli\banjo\banjo_03s.jpg	2	-1	0	0	banjo_03s.jpg	0	0.0	0	189.933474000078	189.98345679999298	0.0499827999155968	111987
112.087	50	187	0	0	garter	659	187	0	stimuli\garter\garter_11s.jpg	10	-1	0	0	garter_11s.jpg	0	0.0	0	190.03347579995201	190.083457299974	0.0499815000221133	112087
112.187	50	188	0	0	bolt	159	188	0	stimuli\bolt\bolt_07n.jpg	6	-1	0	0	bolt_07n.jpg	0	0.0	0	190.133520700037	190.18346030009	0.04993960005231201	112187
112.287	50	189	0	0	water_fountain	1790	189	0	stimuli\water_fountain\water_fountain_06s.jpg	5	-1	0	0	water_fountain_06s.jpg	0	0.0	0	190.23348290007598	190.28346309997102	0.0499801998957992	112287
112.387	50	190	0	0	licorice	922	190	0	stimuli\licorice\licorice_03s.jpg	2	-1	0	0	licorice_03s.jpg	0	0.0	0	190.333483800059	190.38346839998798	0.0499845999293029	112387
112.487	50	191	0	0	dumbwaiter	531	191	0	stimuli\dumbwaiter\dumbwaiter_11s.jpg	10	-1	0	1	dumbwaiter_11s.jpg	0	0.0	0	190.433486300055	190.483468699967	0.049982399912551	112487
112.587	50	192	0	0	timer	1661	192	0	stimuli\timer\timer_04s.jpg	3	-1	0	0	timer_04s.jpg	0	0.0	0	190.533489400055	190.583469500067	0.049980100011453	112587
112.687	50	193	0	0	penholder	1146	193	0	stimuli\penholder\penholder_04s.jpg	3	-1	0	0	penholder_04s.jpg	0	0.0	0	190.633492799941	190.683471899945	0.0499791000038385	112687
112.787	50	194	0	0	banana	63	194	0	stimuli\banana\banana_07s.jpg	6	-1	0	0	banana_07s.jpg	0	0.0	0	190.733515300089	190.78347590006902	0.0499605999793857	112787
112.887	50	195	0	0	zebra	1851	195	0	stimuli\zebra\zebra_08s.jpg	7	-1	0	0	zebra_08s.jpg	1	0.392360599944368	1	190.833497799933	190.88350580003998	0.0500080001074821	112887
112.987	50	196	0	0	snowboard	1481	196	0	stimuli\snowboard\snowboard_01b.jpg	0	-1	0	0	snowboard_01b.jpg	0	0.0	0	190.933497200022	190.98347870004397	0.0499815000221133	112987
113.087	50	197	0	0	shawl	1411	197	0	stimuli\shawl\shawl_05s.jpg	4	-1	0	0	shawl_05s.jpg	0	0.0	0	191.033502399921	191.08348180004398	0.0499794001225382	113087
113.187	50	198	0	0	nest	1056	198	0	stimuli\nest\nest_06s.jpg	5	-1	0	0	nest_06s.jpg	0	0.0	0	191.133501899894	191.183485300047	0.0499834001529962	113187
113.287	50	199	0	0	duffel_bag	529	199	0	stimuli\duffel_bag\duffel_bag_01b.jpg	0	-1	0	0	duffel_bag_01b.jpg	0	0.0	0	191.23350690002601	191.28349000006	0.0499831000342965	113287
113.387	50	200	0	0	calamari	239	200	0	stimuli\calamari\calamari_11s.jpg	10	-1	0	0	calamari_11s.jpg	0	0.0	0	191.333508000011	191.383489599917	0.0499815999064595	113387
113.487	50	201	0	0	lasagna	898	201	0	stimuli\lasagna\lasagna_04s.jpg	3	-1	0	0	lasagna_04s.jpg	0	0.0	0	191.433509099996	191.48350750003002	0.0499984000343829	113487
113.587	50	202	0	0	crucifix	449	202	0	stimuli\crucifix\crucifix_10s.jpg	9	-1	0	0	crucifix_10s.jpg	0	0.0	0	191.53351239999802	191.58349390002	0.0499815000221133	113587
113.687	50	203	0	0	ballot_box	61	203	0	stimuli\ballot_box\ballot_box_05s.jpg	4	-1	0	0	ballot_box_05s.jpg	0	0.0	0	191.63352979999001	191.683495299891	0.0499654999002814	113687
113.787	50	204	0	0	mascara	978	204	0	stimuli\mascara\mascara_02s.jpg	1	-1	0	0	mascara_02s.jpg	0	0.0	0	191.73351679998402	191.783498300007	0.0499815000221133	113787
113.887	50	205	0	0	polaroid	1212	205	0	stimuli\polaroid\polaroid_08s.jpg	7	-1	0	0	polaroid_08s.jpg	0	0.0	0	191.833521199878	191.88350809994202	0.0499869000632316	113887
113.987	50	206	0	0	cheeseburger	313	206	0	stimuli\cheeseburger\cheeseburger_09s.jpg	8	-1	0	0	cheeseburger_09s.jpg	0	0.0	0	191.933521699859	191.983527899953	0.050006200093775995	113987
114.087	50	207	0	0	umbrella	1743	207	0	stimuli\umbrella\umbrella_09s.jpg	8	-1	0	0	umbrella_09s.jpg	0	0.0	0	192.033524799859	192.08350589987802	0.0499811000190675	114087
114.187	50	208	0	0	ice_pack	820	208	0	stimuli\ice_pack\ice_pack_01b.jpg	0	-1	0	0	ice_pack_01b.jpg	0	0.0	0	192.133526799968	192.183510399889	0.0499835999216884	114187
114.287	50	209	0	0	clarinet	350	209	0	stimuli\clarinet\clarinet_07n.jpg	6	-1	0	0	clarinet_07n.jpg	0	0.0	0	192.23353819991502	192.283511799993	0.0499736000783741	114287
114.387	50	210	0	0	electric_chair	553	210	0	stimuli\electric_chair\electric_chair_02s.jpg	1	-1	0	0	electric_chair_02s.jpg	0	0.0	0	192.33353239996399	192.383526100079	0.0499937001150101	114387
114.487	50	211	0	0	watch	1786	211	0	stimuli\watch\watch_08s.jpg	7	-1	0	0	watch_08s.jpg	0	0.0	0	192.433533899952	192.483514199965	0.0499803000129759	114487
114.587	50	212	0	0	cuckoo_clock	456	212	0	stimuli\cuckoo_clock\cuckoo_clock_10s.jpg	9	-1	0	0	cuckoo_clock_10s.jpg	0	0.0	0	192.53353690006801	192.58351800008703	0.0499811000190675	114587
114.687	50	213	0	0	veil	1755	213	0	stimuli\veil\veil_07s.jpg	6	-1	0	0	veil_07s.jpg	0	0.0	0	192.633539499948	192.683521399973	0.0499819000251591	114687
114.787	50	214	0	0	christmas_card	340	214	0	stimuli\christmas_card\christmas_card_01b.jpg	0	-1	0	0	christmas_card_01b.jpg	0	0.0	0	192.733575100079	192.78352320008	0.0499481000006199	114787
114.887	50	215	0	0	wolf	1831	215	0	stimuli\wolf\wolf_08n.jpg	7	-1	0	0	wolf_08n.jpg	0	0.0	0	192.833544000052	192.883524500066	0.0499805000144988	114887
114.987	50	216	0	0	praying_mantis	1238	216	0	stimuli\praying_mantis\praying_mantis_09s.jpg	8	-1	0	0	praying_mantis_09s.jpg	0	0.0	0	192.93354639993	192.983527899953	0.0499815000221133	114987
115.087	50	217	0	0	frame	639	217	0	stimuli\frame\frame_06s.jpg	5	-1	0	0	frame_06s.jpg	0	0.0	0	193.033548800042	193.08353079995098	0.0499819999095052	115087
115.187	50	218	0	0	gyro	730	218	0	stimuli\gyro\gyro_09s.jpg	8	-1	0	0	gyro_09s.jpg	0	0.0	0	193.133553700056	193.18353329994702	0.0499795998912305	115187
115.287	50	219	0	0	credit_card	438	219	0	stimuli\credit_card\credit_card_11s.jpg	10	-1	0	0	credit_card_11s.jpg	0	0.0	0	193.23355349991502	193.28353570005902	0.0499822001438588	115287
115.387	50	220	0	0	baton3	94	220	0	stimuli\baton3\baton3_11s.jpg	10	-1	0	0	baton3_11s.jpg	0	0.0	0	193.33357349992698	193.38353749993303	0.049964000005275004	115387
115.487	50	221	0	0	cage	236	221	0	stimuli\cage\cage_05s.jpg	4	-1	0	0	cage_05s.jpg	0	0.0	0	193.433558600023	193.483556800056	0.049998200032860006	115487
115.587	50	222	0	0	kiwi	876	222	0	stimuli\kiwi\kiwi_10s.jpg	9	-1	0	0	kiwi_10s.jpg	0	0.0	0	193.53355950000702	193.58354309992902	0.0499835999216884	115587
115.687	50	223	0	0	basketball	83	223	0	stimuli\basketball\basketball_11s.jpg	10	-1	0	0	basketball_11s.jpg	0	0.0	0	193.633564200019	193.68354419991402	0.0499799998942763	115687
115.787	50	224	0	0	showerhead	1436	224	0	stimuli\showerhead\showerhead_09s.jpg	8	-1	0	0	showerhead_09s.jpg	0	0.0	0	193.733567100018	193.78354720003003	0.049980100011453	115787
115.887	50	225	0	0	candle	253	225	0	stimuli\candle\candle_02n.jpg	1	-1	0	0	candle_02n.jpg	0	0.0	0	193.833591399947	193.88354830001498	0.0499569000676274	115887
115.987	50	226	0	0	boxing_gloves	183	226	0	stimuli\boxing_gloves\boxing_gloves_01b.jpg	0	-1	0	0	boxing_gloves_01b.jpg	0	0.0	0	193.933570299996	193.98355200001998	0.0499817000236362	115987
116.087	50	227	0	0	bowtie	180	227	0	stimuli\bowtie\bowtie_11s.jpg	10	-1	0	0	bowtie_11s.jpg	0	0.0	0	194.03357720002498	194.08356090006401	0.0499837000388652	116087
116.187	50	228	0	0	mullet	1039	228	0	stimuli\mullet\mullet_12s.jpg	11	-1	0	0	mullet_12s.jpg	0	0.0	0	194.13357519987	194.183558000019	0.0499828001484275	116187
116.287	50	229	0	0	kneepad	878	229	0	stimuli\kneepad\kneepad_11s.jpg	10	-1	0	0	kneepad_11s.jpg	0	0.0	0	194.23358520003998	194.283558799885	0.0499735998455435	116287
116.387	50	230	0	0	cork	409	230	0	stimuli\cork\cork_03s.jpg	2	-1	0	0	cork_03s.jpg	0	0.0	0	194.33358099986802	194.38356300000999	0.0499820001423359	116387
116.487	50	231	0	0	mustard	1044	231	0	stimuli\mustard\mustard_10s.jpg	9	-1	0	0	mustard_10s.jpg	0	0.0	0	194.433597899973	194.48356559988997	0.0499676999170333	116487
116.587	50	232	0	0	shark	1409	232	0	stimuli\shark\shark_12s.jpg	11	-1	0	0	shark_12s.jpg	0	0.0	0	194.533584899968	194.583594700089	0.0500098001211882	116587
116.687	50	233	0	0	eyepiece	568	233	0	stimuli\eyepiece\eyepiece_01s.jpg	0	-1	0	0	eyepiece_01s.jpg	0	0.0	0	194.63358690007598	194.683567999862	0.0499810997862369	116687
116.787	50	234	0	0	eyeliner	567	234	0	stimuli\eyeliner\eyeliner_11s.jpg	10	-1	0	0	eyeliner_11s.jpg	0	0.0	0	194.73359309998298	194.78357109986197	0.0499779998790473	116787
116.887	50	235	0	0	comic_book	391	235	0	stimuli\comic_book\comic_book_09s.jpg	8	-1	0	0	comic_book_09s.jpg	0	0.0	0	194.83359379996497	194.883576099994	0.0499823000282049	116887
116.987	50	236	0	0	makeup	961	236	0	stimuli\makeup\makeup_02s.jpg	1	-1	0	0	makeup_02s.jpg	0	0.0	0	194.93359609996003	194.98357550008203	0.0499794001225382	116987
117.087	50	237	0	0	laser_pointer	899	237	0	stimuli\laser_pointer\laser_pointer_03s.jpg	2	-1	0	0	laser_pointer_03s.jpg	0	0.0	0	195.03360070008802	195.08357849996497	0.0499777998775244	117087
117.187	50	238	0	0	rim	1312	238	0	stimuli\rim\rim_07s.jpg	6	-1	0	0	rim_07s.jpg	0	0.0	0	195.133597899927	195.18359580007402	0.049997900146990994	117187
117.287	50	239	0	0	fishhook	602	239	0	stimuli\fishhook\fishhook_05s.jpg	4	-1	0	0	fishhook_05s.jpg	0	0.0	0	195.233603700064	195.283583099954	0.0499793998897076	117287
117.387	50	240	0	0	freezer	640	240	0	stimuli\freezer\freezer_10s.jpg	9	-1	0	0	freezer_10s.jpg	0	0.0	0	195.333622799953	195.38358819996898	0.0499654000159353	117387
117.487	50	241	0	0	tool	1676	241	0	stimuli\tool\tool_05s.jpg	4	-1	0	0	tool_05s.jpg	0	0.0	0	195.433606799925	195.48358869995	0.0499819000251591	117487
117.587	50	242	0	0	antelope	26	242	0	stimuli\antelope\antelope_11s.jpg	10	-1	0	0	antelope_11s.jpg	0	0.0	0	195.533609899925	195.58360420004502	0.0499943001195788	117587
117.687	50	243	0	0	flour	618	243	0	stimuli\flour\flour_08s.jpg	7	-1	0	0	flour_08s.jpg	0	0.0	0	195.633611900033	195.683596899966	0.0499849999323487	117687
117.787	50	244	0	0	scarecrow	1376	244	0	stimuli\scarecrow\scarecrow_12s.jpg	11	-1	0	0	scarecrow_12s.jpg	0	0.0	0	195.733614800032	195.78359659993998	0.0499817999079823	117787
117.887	50	245	0	0	tostada	1688	245	0	stimuli\tostada\tostada_08s.jpg	7	-1	0	0	tostada_08s.jpg	0	0.0	0	195.83361699990897	195.883600400062	0.0499834001529962	117887
117.987	50	246	0	0	corkboard	410	246	0	stimuli\corkboard\corkboard_07s.jpg	6	-1	0	0	corkboard_07s.jpg	0	0.0	0	195.93363719992297	195.98360130004602	0.0499641001224518	117987
118.087	50	247	0	0	candy_cane	257	247	0	stimuli\candy_cane\candy_cane_08s.jpg	7	-1	0	0	candy_cane_08s.jpg	0	0.0	0	196.033620999893	196.083615500014	0.0499945001211017	118087
118.187	50	248	0	0	roller_coaster	1325	248	0	stimuli\roller_coaster\roller_coaster_12s.jpg	11	-1	0	0	roller_coaster_12s.jpg	0	0.0	0	196.13362349988898	196.183603700018	0.0499802001286298	118187
118.287	50	249	0	0	tuxedo	1738	249	0	stimuli\tuxedo\tuxedo_11s.jpg	10	-1	0	0	tuxedo_11s.jpg	0	0.0	0	196.233630199917	196.283608499914	0.0499782999977469	118287
118.387	50	250	0	0	steering_wheel	1546	250	0	stimuli\steering_wheel\steering_wheel_09s.jpg	8	-1	0	0	steering_wheel_09s.jpg	0	0.0	0	196.33363000000801	196.383609199896	0.0499791998881847	118387
118.487	50	251	0	0	gingerbread_man	674	251	0	stimuli\gingerbread_man\gingerbread_man_02s.jpg	1	-1	0	1	gingerbread_man_02s.jpg	0	0.0	0	196.433660399867	196.483611400006	0.0499510001391172	118487
118.587	50	252	0	0	cutting_board	467	252	0	stimuli\cutting_board\cutting_board_10s.jpg	9	-1	0	0	cutting_board_10s.jpg	0	0.0	0	196.533633599989	196.58361349999902	0.0499799000099301	118587
118.687	50	253	0	0	tripod	1714	253	0	stimuli\tripod\tripod_02s.jpg	1	-1	0	0	tripod_02s.jpg	0	0.0	0	196.633637299994	196.683619200019	0.0499819000251591	118687
118.787	50	254	0	0	barcode	73	254	0	stimuli\barcode\barcode_04s.jpg	3	-1	0	0	barcode_04s.jpg	1	0.29224820015952	1	196.733638799982	196.78362070000702	0.0499819000251591	118787
118.887	50	255	0	0	brick	199	255	0	stimuli\brick\brick_11s.jpg	10	-1	0	0	brick_11s.jpg	0	0.0	0	196.83364079985802	196.88362189987703	0.0499811000190675	118887
118.987	50	256	0	0	soccer_ball	1488	256	0	stimuli\soccer_ball\soccer_ball_03s.jpg	2	-1	0	0	soccer_ball_03s.jpg	0	0.0	0	196.933644999983	196.983623999869	0.0499789998866618	118987
119.087	50	257	0	0	gorilla	695	257	0	stimuli\gorilla\gorilla_03s.jpg	2	-1	0	0	gorilla_03s.jpg	0	0.0	0	197.033678499982	197.08362679998402	0.0499483000021428	119087
119.187	50	258	0	0	breakfast	197	258	0	stimuli\breakfast\breakfast_09s.jpg	8	-1	0	0	breakfast_09s.jpg	0	0.0	0	197.13367279991502	197.18365440005402	0.0499816001392901	119187
119.287	50	259	0	0	rabbit	1265	259	0	stimuli\rabbit\rabbit_04n.jpg	3	-1	0	0	rabbit_04n.jpg	0	0.0	0	197.233650200069	197.283630500082	0.0499803000129759	119287
119.387	50	260	0	0	juicer1	855	260	0	stimuli\juicer1\juicer1_07s.jpg	6	-1	0	0	juicer1_07s.jpg	0	0.0	0	197.333653100068	197.38363240007303	0.0499793000053614	119387
119.487	50	261	0	0	subway	1578	261	0	stimuli\subway\subway_01b.jpg	0	-1	0	0	subway_01b.jpg	0	0.0	0	197.433653899934	197.48363809986	0.0499841999262571	119487
119.587	50	262	0	0	wooden_leg	1834	262	0	stimuli\wooden_leg\wooden_leg_04s.jpg	3	-1	0	0	wooden_leg_04s.jpg	0	0.0	0	197.533656999934	197.583638800075	0.04998180014081299	119587
119.687	50	263	0	0	dessert	481	263	0	stimuli\dessert\dessert_01b.jpg	0	-1	0	0	dessert_01b.jpg	0	0.0	0	197.633658699924	197.683643100085	0.0499844001606107	119687
119.787	50	264	0	0	beachball	99	264	0	stimuli\beachball\beachball_09s.jpg	8	-1	0	0	beachball_09s.jpg	0	0.0	0	197.733662100043	197.78365990007302	0.0499978000298142	119787
119.887	50	265	0	0	shovel	1432	265	0	stimuli\shovel\shovel_05s.jpg	4	-1	0	0	shovel_05s.jpg	0	0.0	0	197.83366769994598	197.883649700088	0.0499820001423359	119887
119.987	50	266	0	0	cymbal	468	266	0	stimuli\cymbal\cymbal_03s.jpg	2	-1	0	0	cymbal_03s.jpg	0	0.0	0	197.933684200048	197.983649600064	0.0499654000159353	119987
120.087	50	267	0	0	gyroscope	731	267	0	stimuli\gyroscope\gyroscope_08s.jpg	7	-1	0	0	gyroscope_08s.jpg	0	0.0	0	198.03367080003997	198.083650900051	0.049980100011453	120087
120.187	50	268	0	0	onion	1077	268	0	stimuli\onion\onion_06s.jpg	5	-1	0	0	onion_06s.jpg	0	0.0	0	198.133672900032	198.18365609995098	0.0499831999186426	120187
120.287	50	269	0	0	extinguisher	563	269	0	stimuli\extinguisher\extinguisher_08s.jpg	7	-1	0	0	extinguisher_08s.jpg	0	0.0	0	198.233675899915	198.28368959994998	0.0500137000344694	120287
120.387	50	270	0	0	boomerang	168	270	0	stimuli\boomerang\boomerang_04s.jpg	3	-1	0	0	boomerang_04s.jpg	0	0.0	0	198.333700400079	198.383659299929	0.0499588998500258	120387
120.487	50	271	0	0	car_seat	269	271	0	stimuli\car_seat\car_seat_09s.jpg	8	-1	0	0	car_seat_09s.jpg	0	0.0	0	198.43367929989498	198.483661300037	0.0499820001423359	120487
120.587	50	272	0	0	screen1	1388	272	0	stimuli\screen1\screen1_03s.jpg	2	-1	0	0	screen1_03s.jpg	0	0.0	0	198.533686900046	198.58366329991298	0.0499763998668641	120587
120.687	50	273	0	0	golf_club	690	273	0	stimuli\golf_club\golf_club_01b.jpg	0	-1	0	0	golf_club_01b.jpg	0	0.0	0	198.63368489989102	198.683667700039	0.0499828001484275	120687
120.787	50	274	0	0	pencil_sharpener	1143	274	0	stimuli\pencil_sharpener\pencil_sharpener_08s.jpg	7	-1	0	0	pencil_sharpener_08s.jpg	0	0.0	0	198.733687199885	198.7836676999	0.0499805000144988	120787
120.887	50	275	0	0	buffet	211	275	0	stimuli\buffet\buffet_08s.jpg	7	-1	0	0	buffet_08s.jpg	0	0.0	0	198.833689499879	198.88368649990298	0.0499970000237226	120887
120.987	50	276	0	0	cruise_ship	450	276	0	stimuli\cruise_ship\cruise_ship_12s.jpg	11	-1	0	0	cruise_ship_12s.jpg	0	0.0	0	198.933696700027	198.983673499897	0.0499767998699099	120987
121.087	50	277	0	0	violin	1764	277	0	stimuli\violin\violin_01b.jpg	0	-1	0	0	violin_01b.jpg	0	0.0	0	199.03372270008498	199.08367630001203	0.0499535999260843	121087
121.187	50	278	0	0	tray	1705	278	0	stimuli\tray\tray_10s.jpg	9	-1	0	0	tray_10s.jpg	0	0.0	0	199.133695600089	199.183682499919	0.0499868998304009	121187
121.287	50	279	0	0	blind	140	279	0	stimuli\blind\blind_02s.jpg	1	-1	0	0	blind_02s.jpg	0	0.0	0	199.233698500087	199.283681500005	0.0499829999171197	121287
121.387	50	280	0	0	mallet	962	280	0	stimuli\mallet\mallet_02s.jpg	1	-1	0	0	mallet_02s.jpg	0	0.0	0	199.33370219986	199.383683099877	0.0499809000175446	121387
121.487	50	281	0	0	vulture	1768	281	0	stimuli\vulture\vulture_02s.jpg	1	-1	0	0	vulture_02s.jpg	0	0.0	0	199.43370279995702	199.48368419986198	0.0499813999049366	121487
121.587	50	282	0	0	sim_card	1446	282	0	stimuli\sim_card\sim_card_02s.jpg	1	-1	0	0	sim_card_02s.jpg	0	0.0	0	199.53370809997398	199.583686899859	0.0499787998851389	121587
121.687	50	283	0	0	dolly	501	283	0	stimuli\dolly\dolly_12s.jpg	11	-1	0	0	dolly_12s.jpg	0	0.0	0	199.63372500008	199.68369009997699	0.0499650998972356	121687
121.787	50	284	0	0	dishwasher	491	284	0	stimuli\dishwasher\dishwasher_07s.jpg	6	-1	0	0	dishwasher_07s.jpg	0	0.0	0	199.733712000074	199.78370489994998	0.0499928998760879	121787
121.887	50	285	0	0	glove	680	285	0	stimuli\glove\glove_06s.jpg	5	-1	0	0	glove_06s.jpg	0	0.0	0	199.833716999972	199.883694600081	0.0499776001088321	121887
121.987	50	286	0	0	mop	1019	286	0	stimuli\mop\mop_03s.jpg	2	-1	0	0	mop_03s.jpg	0	0.0	0	199.93371600005798	199.98369939997798	0.0499833999201655	121987
122.087	50	287	0	0	magnet	956	287	0	stimuli\magnet\magnet_03s.jpg	2	-1	0	0	magnet_03s.jpg	0	0.0	0	200.033718599938	200.083700000076	0.0499814001377672	122087
122.187	50	288	0	0	frisbee	643	288	0	stimuli\frisbee\frisbee_12s.jpg	11	-1	0	0	frisbee_12s.jpg	0	0.0	0	200.133760599885	200.18370199995098	0.0499414000660181	122187
122.287	50	289	0	0	hairdryer	735	289	0	stimuli\hairdryer\hairdryer_02s.jpg	1	-1	0	0	hairdryer_02s.jpg	0	0.0	0	200.23372239992	200.283704600064	0.0499822001438588	122287
122.387	50	290	0	0	silicone	1444	290	0	stimuli\silicone\silicone_12s.jpg	11	-1	0	0	silicone_12s.jpg	0	0.0	0	200.333725600038	200.38370859995499	0.0499829999171197	122387
122.487	50	291	0	0	coop	404	291	0	stimuli\coop\coop_11s.jpg	10	-1	0	0	coop_11s.jpg	0	0.0	0	200.433728599921	200.48370829992902	0.0499797000084072	122487
122.587	50	292	0	0	fox	638	292	0	stimuli\fox\fox_09s.jpg	8	-1	0	0	fox_09s.jpg	0	0.0	0	200.53374550002601	200.58371130004502	0.0499658000189811	122587
122.687	50	293	0	0	pedal	1136	293	0	stimuli\pedal\pedal_12s.jpg	11	-1	0	0	pedal_12s.jpg	0	0.0	0	200.633732900023	200.683714200044	0.0499813000205904	122687
122.787	50	294	0	0	beetle	115	294	0	stimuli\beetle\beetle_09s.jpg	8	-1	0	0	beetle_09s.jpg	0	0.0	0	200.733750700019	200.783717799932	0.0499670999124646	122787
122.887	50	295	0	0	clover	366	295	0	stimuli\clover\clover_12s.jpg	11	-1	0	0	clover_12s.jpg	0	0.0	0	200.833738300018	200.883748899912	0.0500105998944491	122887
122.987	50	296	0	0	meerkat	992	296	0	stimuli\meerkat\meerkat_09s.jpg	8	-1	0	0	meerkat_09s.jpg	0	0.0	0	200.933741499903	200.98372199991698	0.0499805000144988	122987
123.087	50	297	0	0	first-aid_kit	599	297	0	stimuli\first-aid_kit\first-aid_kit_05s.jpg	4	-1	0	0	first-aid_kit_05s.jpg	0	0.0	0	201.033742700005	201.083722699899	0.0499799998942763	123087
123.187	50	298	0	0	leg	911	298	0	stimuli\leg\leg_12s.jpg	11	-1	0	0	leg_12s.jpg	0	0.0	0	201.13375020003897	201.183727900032	0.0499776999931782	123187
123.287	50	299	0	0	bowling_ball	179	299	0	stimuli\bowling_ball\bowling_ball_11s.jpg	10	-1	0	0	bowling_ball_11s.jpg	0	0.0	0	201.233746599872	201.283739199862	0.0499925999902189	123287
123.387	50	300	0	0	birdcage	130	300	0	stimuli\birdcage\birdcage_10s.jpg	9	-1	0	0	birdcage_10s.jpg	0	0.0	0	201.333751299884	201.38373239990298	0.0499811000190675	123387
123.487	50	301	0	0	skeleton	1450	301	0	stimuli\skeleton\skeleton_04s.jpg	3	-1	0	0	skeleton_04s.jpg	0	0.0	0	201.43375259987099	201.48374910000703	0.0499965001363307	123487
123.587	50	302	0	0	lingerie	932	302	0	stimuli\lingerie\lingerie_02s.jpg	1	-1	0	0	lingerie_02s.jpg	0	0.0	0	201.53375449986197	201.58373590000002	0.0499814001377672	123587
123.687	50	303	0	0	doorhandle	508	303	0	stimuli\doorhandle\doorhandle_04s.jpg	3	-1	0	0	doorhandle_04s.jpg	0	0.0	0	201.633768799948	201.68373789987498	0.0499690999276936	123687
123.787	50	304	0	0	jump_rope	858	304	0	stimuli\jump_rope\jump_rope_02s.jpg	1	-1	0	0	jump_rope_02s.jpg	0	0.0	0	201.733761099866	201.783741899999	0.0499808001331985	123787
123.887	50	305	0	0	road_sign	1315	305	0	stimuli\road_sign\road_sign_06s.jpg	5	-1	0	0	road_sign_06s.jpg	0	0.0	0	201.83376260008703	201.883748800028	0.0499861999414861	123887
123.987	50	306	0	0	slingshot	1467	306	0	stimuli\slingshot\slingshot_06s.jpg	5	-1	0	0	slingshot_06s.jpg	0	0.0	0	201.933765799971	201.983785199933	0.0500193999614567	123987
124.087	50	307	0	0	squeegee	1527	307	0	stimuli\squeegee\squeegee_12n.jpg	11	-1	0	0	squeegee_12n.jpg	0	0.0	0	202.03376669995498	202.083747999975	0.0499813000205904	124087
124.187	50	308	0	0	swordfish	1603	308	0	stimuli\swordfish\swordfish_09s.jpg	8	-1	0	0	swordfish_09s.jpg	0	0.0	0	202.13377059996103	202.18374969996498	0.0499791000038385	124187
144.254	50	309	0	0	carriage	276	0	1	stimuli\carriage\carriage_08s.jpg	7	-1	1	0	carriage_08s.jpg	0	0.0	0	222.200951799983	222.25092749996102	0.0499756999779493	144254
144.354	50	310	0	0	applesauce	32	1	1	stimuli\applesauce\applesauce_07s.jpg	6	-1	1	0	applesauce_07s.jpg	0	0.0	0	222.30095020006402	222.350930700079	0.0499805000144988	144354
144.454	50	311	0	0	slot	1469	2	1	stimuli\slot\slot_07s.jpg	6	-1	1	0	slot_07s.jpg	0	0.0	0	222.400957799982	222.45093349996003	0.0499756999779493	144454
144.554	50	312	0	0	ram	1282	3	1	stimuli\ram\ram_06s.jpg	5	-1	1	0	ram_06s.jpg	0	0.0	0	222.50096119986802	222.550933799939	0.0499726000707597	144554
144.654	50	313	0	0	bank	69	4	1	stimuli\bank\bank_09s.jpg	8	-1	1	0	bank_09s.jpg	0	0.0	0	222.60095919994598	222.65093760006098	0.0499784001149237	144654
144.754	50	314	0	0	mouse2	1027	5	1	stimuli\mouse2\mouse2_10s.jpg	9	-1	1	0	mouse2_10s.jpg	0	0.0	0	222.700960000046	222.750926699955	0.0499666999094188	144754
144.854	50	315	0	0	waffle	1770	6	1	stimuli\waffle\waffle_01b.jpg	0	-1	1	0	waffle_01b.jpg	0	0.0	0	222.800961199915	222.850943400059	0.0499822001438588	144854
144.954	50	316	0	0	squirt_gun	1530	7	1	stimuli\squirt_gun\squirt_gun_01b.jpg	0	-1	1	0	squirt_gun_01b.jpg	0	0.0	0	222.90096360002602	222.95094819995603	0.0499845999293029	144954
145.054	50	317	0	0	ferris_wheel	579	8	1	stimuli\ferris_wheel\ferris_wheel_12s.jpg	11	-1	1	0	ferris_wheel_12s.jpg	0	0.0	0	223.00096859992502	223.05094960006	0.0499810001347214	145054
145.154	50	318	0	0	skull	1458	9	1	stimuli\skull\skull_05s.jpg	4	-1	1	0	skull_05s.jpg	0	0.0	0	223.10096809989798	223.150948900031	0.0499808001331985	145154
145.254	50	319	0	0	chickpea	325	10	1	stimuli\chickpea\chickpea_11s.jpg	10	-1	1	0	chickpea_11s.jpg	0	0.0	0	223.200958299916	223.25094399997002	0.0499857000540942	145254
145.354	50	320	0	0	hockey_stick	783	11	1	stimuli\hockey_stick\hockey_stick_08s.jpg	7	-1	1	0	hockey_stick_08s.jpg	0	0.0	0	223.300973699894	223.350960500073	0.0499868001788855	145354
145.454	50	321	0	0	tarp	1628	12	1	stimuli\tarp\tarp_10s.jpg	9	-1	1	0	tarp_10s.jpg	0	0.0	0	223.40097770001702	223.45095869991903	0.0499809999018908	145454
145.555	50	322	0	0	pistachio	1188	13	1	stimuli\pistachio\pistachio_04s.jpg	3	-1	1	0	pistachio_04s.jpg	0	0.0	0	223.501334900036	223.550965100061	0.0496302000246942	145555
145.654	50	323	0	0	coffee_pot	380	14	1	stimuli\coffee_pot\coffee_pot_05s.jpg	4	-1	1	0	coffee_pot_05s.jpg	0	0.0	0	223.60099139995899	223.65096349990898	0.0499720999505371	145654
145.754	50	324	0	0	clay	352	15	1	stimuli\clay\clay_07s.jpg	6	-1	1	0	clay_07s.jpg	0	0.0	0	223.700985499891	223.750965700019	0.0499802001286298	145754
145.854	50	325	0	0	glasses	678	16	1	stimuli\glasses\glasses_01b.jpg	0	-1	1	0	glasses_01b.jpg	0	0.0	0	223.800991199911	223.85096709988997	0.0499758999794722	145854
145.954	50	326	0	0	crab	428	17	1	stimuli\crab\crab_12s.jpg	11	-1	1	0	crab_12s.jpg	0	0.0	0	223.90099709993197	223.950973100029	0.0499760000966489	145954
146.054	50	327	0	0	alligator	12	18	1	stimuli\alligator\alligator_02s.jpg	1	-1	1	0	alligator_02s.jpg	0	0.0	0	224.00100899999998	224.05097440001597	0.0499654000159353	146054
146.154	50	328	0	0	headrest	767	19	1	stimuli\headrest\headrest_12s.jpg	11	-1	1	0	headrest_12s.jpg	0	0.0	0	224.10099629988	224.150993699906	0.0499974000267684	146154
146.254	50	329	0	0	toy	1694	20	1	stimuli\toy\toy_10s.jpg	9	-1	1	0	toy_10s.jpg	0	0.0	0	224.200996000087	224.25098120002102	0.0499851999338716	146254
146.354	50	330	0	0	megaphone	993	21	1	stimuli\megaphone\megaphone_04s.jpg	3	-1	1	0	megaphone_04s.jpg	0	0.0	0	224.300999300089	224.350981599884	0.0499822997953743	146354
146.454	50	331	0	0	bat2	88	22	1	stimuli\bat2\bat2_03s.jpg	2	-1	1	0	bat2_03s.jpg	0	0.0	0	224.401001400081	224.450985899894	0.0499844998121262	146454
146.554	50	332	0	0	elephant	554	23	1	stimuli\elephant\elephant_12n.jpg	11	-1	1	0	elephant_12n.jpg	0	0.0	0	224.50100079993697	224.55098429997503	0.0499835000373423	146554
146.654	50	333	0	0	surfboard	1587	24	1	stimuli\surfboard\surfboard_09s.jpg	8	-1	1	0	surfboard_09s.jpg	0	0.0	0	224.601008699974	224.650987100089	0.0499784001149237	146654
146.754	50	334	0	0	puppy	1258	25	1	stimuli\puppy\puppy_03s.jpg	2	-1	1	0	puppy_03s.jpg	0	0.0	0	224.701008399948	224.750995399896	0.0499869999475777	146754
146.854	50	335	0	0	revolver	1304	26	1	stimuli\revolver\revolver_10s.jpg	9	-1	1	0	revolver_10s.jpg	0	0.0	0	224.80101080006	224.850990100065	0.0499793000053614	146854
146.954	50	336	0	0	hubcap	809	27	1	stimuli\hubcap\hubcap_04s.jpg	3	-1	1	0	hubcap_04s.jpg	0	0.0	0	224.901011999929	224.95099229994202	0.0499803000129759	146954
147.054	50	337	0	0	float	616	28	1	stimuli\float\float_09s.jpg	8	-1	1	0	float_09s.jpg	0	0.0	0	225.001016600057	225.050980400061	0.0499638000037521	147054
147.154	50	338	0	0	springboard	1522	29	1	stimuli\springboard\springboard_07s.jpg	6	-1	1	0	springboard_07s.jpg	0	0.0	0	225.101003699936	225.15099969995202	0.0499960000161082	147154
147.254	50	339	0	0	confetti	396	30	1	stimuli\confetti\confetti_07s.jpg	6	-1	1	0	confetti_07s.jpg	0	0.0	0	225.20102229993802	225.25098769995398	0.0499654000159353	147254
147.354	50	340	0	0	pulley	1250	31	1	stimuli\pulley\pulley_11s.jpg	10	-1	1	0	pulley_11s.jpg	0	0.0	0	225.301022700034	225.351003499934	0.0499807999003679	147354
147.454	50	341	0	0	manhole	967	32	1	stimuli\manhole\manhole_03s.jpg	2	-1	1	0	manhole_03s.jpg	0	0.0	0	225.40101250005	225.45100750005798	0.0499950000084937	147454
147.554	50	342	0	0	porcupine	1226	33	1	stimuli\porcupine\porcupine_02s.jpg	1	-1	1	0	porcupine_02s.jpg	0	0.0	0	225.50102699990398	225.551011499949	0.0499845000449568	147554
147.654	50	343	0	0	arch	35	34	1	stimuli\arch\arch_11s.jpg	10	-1	1	0	arch_11s.jpg	0	0.0	0	225.60103209991902	225.651015100069	0.0499830001499504	147654
147.754	50	344	0	0	medal	991	35	1	stimuli\medal\medal_05s.jpg	4	-1	1	0	medal_05s.jpg	0	0.0	0	225.701034199912	225.75101420003898	0.0499800001271069	147754
147.855	50	345	0	0	chopsticks	339	36	1	stimuli\chopsticks\chopsticks_05s.jpg	4	-1	1	0	chopsticks_05s.jpg	0	0.0	0	225.801040699938	225.85103849996798	0.0499978000298142	147855
147.954	50	346	0	0	flashbulb	610	37	1	stimuli\flashbulb\flashbulb_09s.jpg	8	-1	1	0	flashbulb_09s.jpg	0	0.0	0	225.90103819989602	225.951017099898	0.0499789000023156	147954
148.055	50	347	0	0	turtle	1736	38	1	stimuli\turtle\turtle_12s.jpg	11	-1	1	0	turtle_12s.jpg	0	0.0	0	226.001041299896	226.05101970001098	0.0499784001149237	148055
148.155	50	348	0	0	leaf	906	39	1	stimuli\leaf\leaf_03s.jpg	2	-1	1	0	leaf_03s.jpg	0	0.0	0	226.101044999901	226.151023699902	0.0499787000007927	148155
148.255	50	349	0	0	twig	1740	40	1	stimuli\twig\twig_10s.jpg	9	-1	1	0	twig_10s.jpg	0	0.0	0	226.201048299903	226.25102770002601	0.0499794001225382	148255
148.355	50	350	0	0	speedometer	1512	41	1	stimuli\speedometer\speedometer_10s.jpg	9	-1	1	0	speedometer_10s.jpg	0	0.0	0	226.301047199871	226.351026799995	0.0499796001240611	148355
148.455	50	351	0	0	pencil	1142	42	1	stimuli\pencil\pencil_02s.jpg	1	-1	1	0	pencil_02s.jpg	0	0.0	0	226.401050199987	226.451028899988	0.0499787000007927	148455
148.555	50	352	0	0	bead	100	43	1	stimuli\bead\bead_09s.jpg	8	-1	1	0	bead_09s.jpg	0	0.0	0	226.50105149997398	226.551032299874	0.0499807999003679	148555
148.655	50	353	0	0	contact_lens	397	44	1	stimuli\contact_lens\contact_lens_03s.jpg	2	-1	1	0	contact_lens_03s.jpg	0	0.0	0	226.60106060002002	226.651037999894	0.0499773998744786	148655
148.755	50	354	0	0	hook1	793	45	1	stimuli\hook1\hook1_12s.jpg	11	-1	1	0	hook1_12s.jpg	0	0.0	0	226.70104279997798	226.751038999995	0.0499962000176311	148755
148.855	50	355	0	0	jetski	848	46	1	stimuli\jetski\jetski_05s.jpg	4	-1	1	0	jetski_05s.jpg	0	0.0	0	226.801059599966	226.851038400084	0.0499788001179695	148855
148.955	50	356	0	0	calf2	242	47	1	stimuli\calf2\calf2_12s.jpg	11	-1	1	0	calf2_12s.jpg	0	0.0	0	226.901067599887	226.95102829998402	0.0499607000965625	148955
149.055	50	357	0	0	bench	120	48	1	stimuli\bench\bench_04s.jpg	3	-1	1	0	bench_04s.jpg	0	0.0	0	227.001065599965	227.05104249995202	0.0499768999870867	149055
149.155	50	358	0	0	radio	1273	49	1	stimuli\radio\radio_02s.jpg	1	-1	1	0	radio_02s.jpg	0	0.0	0	227.101065899944	227.151049999986	0.049984100041911	149155
149.255	50	359	0	0	coat	369	50	1	stimuli\coat\coat_10s.jpg	9	-1	1	0	coat_10s.jpg	0	0.0	0	227.20106939994702	227.251033300068	0.0499639001209289	149255
149.355	50	360	0	0	cereal	297	51	1	stimuli\cereal\cereal_12s.jpg	11	-1	1	0	cereal_12s.jpg	0	0.0	0	227.30107280006598	227.351052100072	0.0499793000053614	149355
149.455	50	361	0	0	swimsuit	1597	52	1	stimuli\swimsuit\swimsuit_06s.jpg	5	-1	1	0	swimsuit_06s.jpg	0	0.0	0	227.401072199922	227.45105409994702	0.0499819000251591	149455
149.555	50	362	0	0	backdrop	47	53	1	stimuli\backdrop\backdrop_06s.jpg	5	-1	1	0	backdrop_06s.jpg	0	0.0	0	227.50107409991298	227.551054799929	0.0499807000160217	149555
149.655	50	363	0	0	pajamas	1099	54	1	stimuli\pajamas\pajamas_10s.jpg	9	-1	1	0	pajamas_10s.jpg	0	0.0	0	227.60107719991402	227.65106249996498	0.0499853000510484	149655
149.755	50	364	0	0	bandanna	67	55	1	stimuli\bandanna\bandanna_02s.jpg	1	-1	1	0	bandanna_02s.jpg	0	0.0	0	227.701107899891	227.75106250005797	0.0499546001665294	149755
149.855	50	365	0	0	chute	342	56	1	stimuli\chute\chute_02s.jpg	1	-1	1	0	chute_02s.jpg	0	0.0	0	227.801090100082	227.851067299955	0.0499771998729557	149855
149.955	50	366	0	0	turban	1730	57	1	stimuli\turban\turban_04s.jpg	3	-1	1	0	turban_04s.jpg	0	0.0	0	227.901088899933	227.95109059987598	0.0500016999430954	149955
150.055	50	367	0	0	footrest	633	58	1	stimuli\footrest\footrest_11s.jpg	10	-1	1	0	footrest_11s.jpg	0	0.0	0	228.00108890002602	228.051070400048	0.0499815000221133	150055
150.155	50	368	0	0	sprouts	1524	59	1	stimuli\sprouts\sprouts_10s.jpg	9	-1	1	0	sprouts_10s.jpg	0	0.0	0	228.101094400045	228.151073799934	0.0499793998897076	150155
150.255	50	369	0	0	oatmeal	1069	60	1	stimuli\oatmeal\oatmeal_09s.jpg	8	-1	1	0	oatmeal_09s.jpg	0	0.0	0	228.201092300005	228.251072000014	0.0499797000084072	150255
150.355	50	370	0	0	vending_machine	1757	61	1	stimuli\vending_machine\vending_machine_04s.jpg	3	-1	1	0	vending_machine_04s.jpg	0	0.0	0	228.301103899954	228.35107830003798	0.0499744000844657	150355
150.455	50	371	0	0	cream	436	62	1	stimuli\cream\cream_11s.jpg	10	-1	1	0	cream_11s.jpg	0	0.0	0	228.401103300042	228.45107840001597	0.0499750999733806	150455
150.555	50	372	0	0	seismograph	1403	63	1	stimuli\seismograph\seismograph_08s.jpg	7	-1	1	0	seismograph_08s.jpg	0	0.0	0	228.501101600006	228.551084100036	0.0499825000297278	150555
150.655	50	373	0	0	popsicle	1225	64	1	stimuli\popsicle\popsicle_09s.jpg	8	-1	1	0	popsicle_09s.jpg	0	0.0	0	228.601102999877	228.651082600001	0.0499796001240611	150655
150.755	50	374	0	0	neck	1053	65	1	stimuli\neck\neck_02s.jpg	1	-1	1	0	neck_02s.jpg	0	0.0	0	228.701104999986	228.751085999887	0.0499809999018908	150755
150.855	50	375	0	0	rhinoceros	1306	66	1	stimuli\rhinoceros\rhinoceros_04s.jpg	3	-1	1	0	rhinoceros_04s.jpg	0	0.0	0	228.80111070000598	228.85109069990003	0.0499799998942763	150855
150.955	50	376	0	0	mongoose	1016	67	1	stimuli\mongoose\mongoose_10s.jpg	9	-1	1	0	mongoose_10s.jpg	0	0.0	0	228.901133999927	228.95109179988498	0.0499577999580652	150955
151.055	50	377	0	0	sock	1489	68	1	stimuli\sock\sock_07s.jpg	6	-1	1	0	sock_07s.jpg	0	0.0	0	229.001112299971	229.05109379999297	0.0499815000221133	151055
151.155	50	378	0	0	stir_fry	1557	69	1	stimuli\stir_fry\stir_fry_08s.jpg	7	-1	1	0	stir_fry_08s.jpg	0	0.0	0	229.101120299893	229.1510824	0.0499621001072228	151155
151.255	50	379	0	0	turkey	1733	70	1	stimuli\turkey\turkey_03s.jpg	2	-1	1	0	turkey_03s.jpg	0	0.0	0	229.201117499964	229.25107300002102	0.0499555000569671	151255
151.355	50	380	0	0	face_mask	570	71	1	stimuli\face_mask\face_mask_10s.jpg	9	-1	1	0	face_mask_10s.jpg	0	0.0	0	229.30109379999297	229.35107249999402	0.0499787000007927	151355
151.455	50	381	0	0	walrus	1779	72	1	stimuli\walrus\walrus_12s.jpg	11	-1	1	0	walrus_12s.jpg	0	0.0	0	229.40109679987702	229.451074699871	0.0499778999947011	151455
151.555	50	382	0	0	pancake	1104	73	1	stimuli\pancake\pancake_11s.jpg	10	-1	1	0	pancake_11s.jpg	0	0.0	0	229.501099499874	229.551075699972	0.0499762000981718	151555
151.655	50	383	0	0	cocktail	374	74	1	stimuli\cocktail\cocktail_08s.jpg	7	-1	1	0	cocktail_08s.jpg	0	0.0	0	229.60110339988	229.651080999989	0.0499776001088321	151655
151.755	50	384	0	0	spark_plug	1506	75	1	stimuli\spark_plug\spark_plug_10s.jpg	9	-1	1	0	spark_plug_10s.jpg	0	0.0	0	229.70110230008098	229.751082799863	0.0499804997816682	151755
151.855	50	385	0	0	hot_tub	804	76	1	stimuli\hot_tub\hot_tub_06s.jpg	5	-1	1	0	hot_tub_06s.jpg	0	0.0	0	229.801105099963	229.85108589986302	0.0499807999003679	151855
151.955	50	386	0	0	wrist	1842	77	1	stimuli\wrist\wrist_06s.jpg	5	-1	1	0	wrist_06s.jpg	0	0.0	0	229.901114299893	229.95108979987003	0.0499754999764264	151955
152.055	50	387	0	0	mantle	969	78	1	stimuli\mantle\mantle_06s.jpg	5	-1	1	0	mantle_06s.jpg	0	0.0	0	230.00111089996102	230.051091499859	0.049980599898845006	152055
152.155	50	388	0	0	rearview_mirror	1293	79	1	stimuli\rearview_mirror\rearview_mirror_02s.jpg	1	-1	1	0	rearview_mirror_02s.jpg	0	0.0	0	230.10111299995302	230.15109189995601	0.0499789000023156	152155
152.255	50	389	0	0	ladybug	888	80	1	stimuli\ladybug\ladybug_07s.jpg	6	-1	1	0	ladybug_07s.jpg	0	0.0	0	230.20111919986098	230.25109610008099	0.0499769002199173	152255
152.355	50	390	0	0	mailbox	960	81	1	stimuli\mailbox\mailbox_05s.jpg	4	-1	1	0	mailbox_05s.jpg	0	0.0	0	230.30111999996	230.35109780007005	0.049977800110355	152355
152.455	50	391	0	0	noodle	1061	82	1	stimuli\noodle\noodle_03s.jpg	2	-1	1	0	noodle_03s.jpg	0	0.0	0	230.40112129994702	230.45109850005198	0.0499772001057863	152455
152.555	50	392	0	0	odometer	1071	83	1	stimuli\odometer\odometer_08s.jpg	7	-1	1	0	odometer_08s.jpg	0	0.0	0	230.501125900075	230.55110069992998	0.0499747998546809	152555
152.655	50	393	0	0	guardrail	720	84	1	stimuli\guardrail\guardrail_01b.jpg	0	-1	1	0	guardrail_01b.jpg	0	0.0	0	230.60112569993402	230.651104599936	0.0499789000023156	152655
152.755	50	394	0	0	handle	748	85	1	stimuli\handle\handle_04s.jpg	3	-1	1	0	handle_04s.jpg	0	0.0	0	230.701125399908	230.75110649992698	0.0499811000190675	152755
152.855	50	395	0	0	dragonfly	514	86	1	stimuli\dragonfly\dragonfly_04s.jpg	3	-1	1	0	dragonfly_04s.jpg	0	0.0	0	230.80113700009	230.851108700037	0.0499716999474913	152855
152.955	50	396	0	0	strawberry	1570	87	1	stimuli\strawberry\strawberry_06n.jpg	5	-1	1	0	strawberry_06n.jpg	0	0.0	0	230.901133199921	230.951111099916	0.0499778999947011	152955
153.055	50	397	0	0	paper_towel	1115	88	1	stimuli\paper_towel\paper_towel_08s.jpg	7	-1	1	0	paper_towel_08s.jpg	0	0.0	0	231.00113589991798	231.051115900045	0.0499800001271069	153055
153.155	50	398	0	0	telegraph	1638	89	1	stimuli\telegraph\telegraph_01s.jpg	0	-1	1	0	telegraph_01s.jpg	0	0.0	0	231.10113830003	231.15111820003898	0.0499799000099301	153155
153.255	50	399	0	0	daisy	470	90	1	stimuli\daisy\daisy_11s.jpg	10	-1	1	0	daisy_11s.jpg	0	0.0	0	231.201142200036	231.251123100054	0.0499809000175446	153255
153.355	50	400	0	0	easel	542	91	1	stimuli\easel\easel_05s.jpg	4	-1	1	0	easel_05s.jpg	0	0.0	0	231.301141100004	231.351121099899	0.0499799998942763	153355
153.455	50	401	0	0	book	165	92	1	stimuli\book\book_12s.jpg	11	-1	1	0	book_12s.jpg	0	0.0	0	231.401146699907	231.45112679991902	0.049980100011453	153455
153.555	50	402	0	0	ferry	580	93	1	stimuli\ferry\ferry_06s.jpg	5	-1	1	0	ferry_06s.jpg	0	0.0	0	231.50114939990502	231.551128499908	0.0499791000038385	153555
153.655	50	403	0	0	shelf	1416	94	1	stimuli\shelf\shelf_12s.jpg	11	-1	1	0	shelf_12s.jpg	0	0.0	0	231.60115120001097	231.65112779988	0.049976599868387005	153655
153.755	50	404	0	0	tree_trunk	1709	95	1	stimuli\tree_trunk\tree_trunk_02s.jpg	1	-1	1	0	tree_trunk_02s.jpg	0	0.0	0	231.701151599875	231.75113260000902	0.0499810001347214	153755
153.855	50	405	0	0	ink	829	96	1	stimuli\ink\ink_01b.jpg	0	-1	1	0	ink_01b.jpg	0	0.0	0	231.801154799992	231.851134399883	0.0499795998912305	153855
153.955	50	406	0	0	toothbrush	1679	97	1	stimuli\toothbrush\toothbrush_06s.jpg	5	-1	1	0	toothbrush_06s.jpg	0	0.0	0	231.901157099986	231.95113569987004	0.049978599883616	153955
154.055	50	407	0	0	swizzle_stick	1601	98	1	stimuli\swizzle_stick\swizzle_stick_08s.jpg	7	-1	1	0	swizzle_stick_08s.jpg	0	0.0	0	232.00116580002899	232.051138299983	0.0499724999535829	154055
154.155	50	408	0	0	anvil	28	99	1	stimuli\anvil\anvil_02s.jpg	1	-1	1	0	anvil_02s.jpg	0	0.0	0	232.10116140008898	232.151142599992	0.0499811999034137	154155
154.255	50	409	0	0	nail_polish	1049	100	1	stimuli\nail_polish\nail_polish_03s.jpg	2	-1	1	0	nail_polish_03s.jpg	0	0.0	0	232.201165899867	232.25114379986198	0.0499778999947011	154255
154.355	50	410	0	0	seafood	1394	101	1	stimuli\seafood\seafood_12s.jpg	11	-1	1	0	seafood_12s.jpg	0	0.0	0	232.30116640008097	232.351144300075	0.0499778999947011	154355
154.455	50	411	0	0	watermelon	1793	102	1	stimuli\watermelon\watermelon_08s.jpg	7	-1	1	0	watermelon_08s.jpg	0	0.0	0	232.401169900084	232.451149899978	0.0499799998942763	154455
154.555	50	412	0	0	apple_tree	31	103	1	stimuli\apple_tree\apple_tree_08s.jpg	7	-1	1	0	apple_tree_08s.jpg	0	0.0	0	232.50117379985699	232.551150300074	0.0499765002168715	154555
154.655	50	413	0	0	whoopee_cushion	1814	104	1	stimuli\whoopee_cushion\whoopee_cushion_04s.jpg	3	-1	1	0	whoopee_cushion_04s.jpg	0	0.0	0	232.601174700074	232.651154000079	0.0499793000053614	154655
154.755	50	414	0	0	sandwich	1357	105	1	stimuli\sandwich\sandwich_02s.jpg	1	-1	1	0	sandwich_02s.jpg	0	0.0	0	232.701175699942	232.751155500067	0.049979800125584006	154755
154.855	50	415	0	0	orchid	1081	106	1	stimuli\orchid\orchid_08s.jpg	7	-1	1	0	orchid_08s.jpg	0	0.0	0	232.80117990006698	232.851156400051	0.0499764999840409	154855
154.955	50	416	0	0	trowel	1719	107	1	stimuli\trowel\trowel_10s.jpg	9	-1	1	0	trowel_10s.jpg	0	0.0	0	232.901183200069	232.95116070006	0.0499774999916553	154955
155.055	50	417	0	0	combination_lock	390	108	1	stimuli\combination_lock\combination_lock_11s.jpg	10	-1	1	0	combination_lock_11s.jpg	0	0.0	0	233.001184399938	233.051165600074	0.0499812001362443	155055
155.155	50	418	0	0	amber	18	109	1	stimuli\amber\amber_08s.jpg	7	-1	1	0	amber_08s.jpg	0	0.0	0	233.10118740005402	233.15116299991502	0.0499755998607725	155155
155.255	50	419	0	0	teapot	1634	110	1	stimuli\teapot\teapot_06s.jpg	5	-1	1	0	teapot_06s.jpg	0	0.0	0	233.201189500047	233.251166800037	0.0499772999901325	155255
155.355	50	420	0	0	trunk	1722	111	1	stimuli\trunk\trunk_12s.jpg	11	-1	1	0	trunk_12s.jpg	0	0.0	0	233.301199199865	233.351169900037	0.0499707001727074	155355
155.455	50	421	0	0	glass	677	112	1	stimuli\glass\glass_06s.jpg	5	-1	1	0	glass_06s.jpg	0	0.0	0	233.40119710005797	233.45117169991101	0.049974599853158	155455
155.555	50	422	0	0	headset	769	113	1	stimuli\headset\headset_04s.jpg	3	-1	1	0	headset_04s.jpg	0	0.0	0	233.501196800033	233.551173999906	0.0499771998729557	155555
155.655	50	423	0	0	footprint	632	114	1	stimuli\footprint\footprint_08s.jpg	7	-1	1	0	footprint_08s.jpg	0	0.0	0	233.601198399905	233.65117740002498	0.0499790001194924	155655
155.755	50	424	0	0	cocoon	376	115	1	stimuli\cocoon\cocoon_10s.jpg	9	-1	1	0	cocoon_10s.jpg	0	0.0	0	233.70119779999402	233.751178900013	0.0499811000190675	155755
155.855	50	425	0	0	sorbet	1497	116	1	stimuli\sorbet\sorbet_04s.jpg	3	-1	1	0	sorbet_04s.jpg	0	0.0	0	233.80120590003202	233.851182600018	0.0499766999855638	155855
155.955	50	426	0	0	guinea_pig	722	117	1	stimuli\guinea_pig\guinea_pig_08s.jpg	7	-1	1	0	guinea_pig_08s.jpg	0	0.0	0	233.901205200003	233.951208000071	0.0500028000678867	155955
156.055	50	427	0	0	shell2	1418	118	1	stimuli\shell2\shell2_10s.jpg	9	-1	1	0	shell2_10s.jpg	0	0.0	0	234.001208900008	234.051188800018	0.0499799000099301	156055
156.155	50	428	0	0	headscarf	768	119	1	stimuli\headscarf\headscarf_08s.jpg	7	-1	1	0	headscarf_08s.jpg	0	0.0	0	234.101210599998	234.151193399914	0.0499827999155968	156155
156.255	50	429	0	0	thermostat	1648	120	1	stimuli\thermostat\thermostat_12s.jpg	11	-1	1	0	thermostat_12s.jpg	0	0.0	0	234.20123129990003	234.251192899887	0.0499615999870002	156255
156.355	50	430	0	0	sheep	1414	121	1	stimuli\sheep\sheep_04n.jpg	3	-1	1	0	sheep_04n.jpg	0	0.0	0	234.30121920001702	234.351196199888	0.0499769998714328	156355
156.455	50	431	0	0	microwave	1000	122	1	stimuli\microwave\microwave_11s.jpg	10	-1	1	0	microwave_11s.jpg	0	0.0	0	234.40121909999297	234.451196599985	0.0499774999916553	156455
156.555	50	432	0	0	lifesaver	925	123	1	stimuli\lifesaver\lifesaver_12s.jpg	11	-1	1	0	lifesaver_12s.jpg	0	0.0	0	234.50122629990798	234.551203500014	0.0499772001057863	156555
156.655	50	433	0	0	squirrel	1529	124	1	stimuli\squirrel\squirrel_06s.jpg	5	-1	1	0	squirrel_06s.jpg	0	0.0	0	234.601231700042	234.651222799905	0.0499910998623818	156655
156.755	50	434	0	0	sunglasses	1585	125	1	stimuli\sunglasses\sunglasses_08s.jpg	7	-1	1	0	sunglasses_08s.jpg	0	0.0	0	234.701249900041	234.751205499982	0.0499555999413133	156755
156.855	50	435	0	0	soy_sauce	1500	126	1	stimuli\soy_sauce\soy_sauce_08s.jpg	7	-1	1	0	soy_sauce_08s.jpg	0	0.0	0	234.801227099961	234.851207999978	0.0499809000175446	156855
156.955	50	436	0	0	mushroom	1040	127	1	stimuli\mushroom\mushroom_03n.jpg	2	-1	1	0	mushroom_03n.jpg	0	0.0	0	234.901231799973	234.951210499974	0.0499787000007927	156955
157.055	50	437	0	0	curtain	465	128	1	stimuli\curtain\curtain_03s.jpg	2	-1	1	0	curtain_03s.jpg	0	0.0	0	235.00123260007197	235.051210500067	0.0499778999947011	157055
157.155	50	438	0	0	fishing_pole	603	129	1	stimuli\fishing_pole\fishing_pole_03s.jpg	2	-1	1	0	fishing_pole_03s.jpg	0	0.0	0	235.101235100068	235.15121429995602	0.0499791998881847	157155
157.255	50	439	0	0	steamroller	1545	130	1	stimuli\steamroller\steamroller_03n.jpg	2	-1	1	0	steamroller_03n.jpg	0	0.0	0	235.201237099944	235.251215100056	0.0499780001118779	157255
157.355	50	440	0	0	ski_pole	1455	131	1	stimuli\ski_pole\ski_pole_03s.jpg	2	-1	1	0	ski_pole_03s.jpg	0	0.0	0	235.301242799964	235.351217699936	0.0499748999718577	157355
157.455	50	441	0	0	crow	446	132	1	stimuli\crow\crow_01b.jpg	0	-1	1	0	crow_01b.jpg	0	0.0	0	235.40124229993697	235.45122079993598	0.0499784999992698	157455
157.555	50	442	0	0	panda	1105	133	1	stimuli\panda\panda_07s.jpg	6	-1	1	0	panda_07s.jpg	0	0.0	0	235.501245300053	235.551224000053	0.0499787000007927	157555
157.655	50	443	0	0	wire	1828	134	1	stimuli\wire\wire_06s.jpg	5	-1	1	0	wire_06s.jpg	0	0.0	0	235.601247000042	235.65122519992298	0.0499781998805702	157655
157.755	50	444	0	0	chicken1	322	135	1	stimuli\chicken1\chicken1_05s.jpg	4	-1	1	0	chicken1_05s.jpg	0	0.0	0	235.701246100012	235.751228099922	0.0499819999095052	157755
157.855	50	445	0	0	pearl	1134	136	1	stimuli\pearl\pearl_04s.jpg	3	-1	1	0	pearl_04s.jpg	0	0.0	0	235.801253499929	235.85123070003502	0.0499772001057863	157855
157.955	50	446	0	0	wine	1823	137	1	stimuli\wine\wine_08s.jpg	7	-1	1	0	wine_08s.jpg	0	0.0	0	235.901257799938	235.951233400032	0.0499756000936031	157955
158.055	50	447	0	0	saffron	1345	138	1	stimuli\saffron\saffron_11s.jpg	10	-1	1	0	saffron_11s.jpg	0	0.0	0	236.00125900004102	236.051236399915	0.0499773998744786	158055
158.155	50	448	0	0	penlight	1147	139	1	stimuli\penlight\penlight_08s.jpg	7	-1	1	0	penlight_08s.jpg	0	0.0	0	236.101259199902	236.151237699902	0.0499784999992698	158155
158.255	50	449	0	0	dynamite	536	140	1	stimuli\dynamite\dynamite_09s.jpg	8	-1	1	0	dynamite_09s.jpg	0	0.0	0	236.201261800015	236.25123930000703	0.0499774999916553	158255
158.355	50	450	0	0	fan	571	141	1	stimuli\fan\fan_08s.jpg	7	-1	1	0	fan_08s.jpg	0	0.0	0	236.30126319988602	236.351242400007	0.0499792001210153	158355
158.455	50	451	0	0	brownie	204	142	1	stimuli\brownie\brownie_05s.jpg	4	-1	1	0	brownie_05s.jpg	0	0.0	0	236.401267400011	236.451245700009	0.0499782999977469	158455
158.555	50	452	0	0	filter	587	143	1	stimuli\filter\filter_06s.jpg	5	-1	1	0	filter_06s.jpg	0	0.0	0	236.501269500004	236.551249299897	0.0499797998927534	158555
158.655	50	453	0	0	perfume	1154	144	1	stimuli\perfume\perfume_06s.jpg	5	-1	1	0	perfume_06s.jpg	0	0.0	0	236.601273200009	236.651250099996	0.0499768999870867	158655
158.755	50	454	0	0	caramel	270	145	1	stimuli\caramel\caramel_03s.jpg	2	-1	1	0	caramel_03s.jpg	0	0.0	0	236.701277900022	236.75125149986698	0.0499735998455435	158755
158.855	50	455	0	0	taco	1613	146	1	stimuli\taco\taco_08s.jpg	7	-1	1	0	taco_08s.jpg	0	0.0	0	236.801276399987	236.851253499975	0.0499770999886096	158855
158.955	50	456	0	0	gift	672	147	1	stimuli\gift\gift_01b.jpg	0	-1	1	0	gift_01b.jpg	0	0.0	0	236.90127959987097	236.95125630009	0.0499767002183944	158955
159.055	50	457	0	0	crayon	435	148	1	stimuli\crayon\crayon_07s.jpg	6	-1	1	0	crayon_07s.jpg	0	0.0	0	237.001285699895	237.051260199863	0.0499744999688119	159055
159.155	50	458	0	0	sunroof	1586	149	1	stimuli\sunroof\sunroof_07s.jpg	6	-1	1	0	sunroof_07s.jpg	0	0.0	0	237.101285099983	237.15126199997002	0.0499768999870867	159155
159.255	50	459	0	0	music_box	1041	150	1	stimuli\music_box\music_box_06s.jpg	5	-1	1	0	music_box_06s.jpg	0	0.0	0	237.20128889987203	237.25126509997102	0.0499762000981718	159255
159.355	50	460	0	0	whiteboard	1813	151	1	stimuli\whiteboard\whiteboard_11s.jpg	10	-1	1	0	whiteboard_11s.jpg	0	0.0	0	237.301288000075	237.351267300081	0.0499793000053614	159355
159.455	50	461	0	0	blueberry	149	152	1	stimuli\blueberry\blueberry_11n.jpg	10	-1	1	0	blueberry_11n.jpg	0	0.0	0	237.401296600001	237.451269600075	0.0499730000738055	159455
159.555	50	462	0	0	fire_pit	593	153	1	stimuli\fire_pit\fire_pit_04s.jpg	3	-1	1	0	fire_pit_04s.jpg	0	0.0	0	237.501292299945	237.551271700067	0.0499794001225382	159555
159.655	50	463	0	0	siren	1448	154	1	stimuli\siren\siren_11s.jpg	10	-1	1	0	siren_11s.jpg	0	0.0	0	237.60129639995301	237.651274499949	0.04997809999622401	159655
159.755	50	464	0	0	paintbrush	1097	155	1	stimuli\paintbrush\paintbrush_04s.jpg	3	-1	1	0	paintbrush_04s.jpg	0	0.0	0	237.701297600055	237.75127599993698	0.0499783998820931	159755
159.855	50	465	0	0	elbow	552	156	1	stimuli\elbow\elbow_06s.jpg	5	-1	1	0	elbow_06s.jpg	0	0.0	0	237.80130210006598	237.851278699934	0.049976599868387005	159855
159.955	50	466	0	0	chimney	329	157	1	stimuli\chimney\chimney_08s.jpg	7	-1	1	0	chimney_08s.jpg	0	0.0	0	237.90130649996001	237.951280700043	0.0499742000829428	159955
160.055	50	467	0	0	hedge	773	158	1	stimuli\hedge\hedge_07s.jpg	6	-1	1	0	hedge_07s.jpg	0	0.0	0	238.001305100042	238.05128389992802	0.0499787998851389	160055
160.155	50	468	0	0	vase	1753	159	1	stimuli\vase\vase_06s.jpg	5	-1	1	0	vase_06s.jpg	0	0.0	0	238.101306800032	238.15128570003398	0.0499789000023156	160155
160.255	50	469	0	0	light_switch	926	160	1	stimuli\light_switch\light_switch_06s.jpg	5	-1	1	0	light_switch_06s.jpg	0	0.0	0	238.20131090003997	238.251289699925	0.0499787998851389	160255
160.355	50	470	0	0	wall	1775	161	1	stimuli\wall\wall_07s.jpg	6	-1	1	0	wall_07s.jpg	0	0.0	0	238.301311800024	238.351291199913	0.0499793998897076	160355
160.455	50	471	0	0	puddle	1247	162	1	stimuli\puddle\puddle_05s.jpg	4	-1	1	0	puddle_05s.jpg	0	0.0	0	238.401317199925	238.451294899918	0.0499776999931782	160455
160.555	50	472	0	0	gravestone	710	163	1	stimuli\gravestone\gravestone_12s.jpg	11	-1	1	0	gravestone_12s.jpg	0	0.0	0	238.50131869991299	238.551296599908	0.0499778999947011	160555
160.655	50	473	0	0	red_carpet	1298	164	1	stimuli\red_carpet\red_carpet_08s.jpg	7	-1	1	0	red_carpet_08s.jpg	0	0.0	0	238.601318799891	238.651303699939	0.0499849000480026	160655
160.755	50	474	0	0	water_filter	1789	165	1	stimuli\water_filter\water_filter_01b.jpg	0	-1	1	0	water_filter_01b.jpg	0	0.0	0	238.70132069988202	238.751301199896	0.0499805000144988	160755
160.855	50	475	0	0	seed	1401	166	1	stimuli\seed\seed_02s.jpg	1	-1	1	0	seed_02s.jpg	0	0.0	0	238.801324300002	238.851306200027	0.0499819000251591	160855
160.955	50	476	0	0	gasket	661	167	1	stimuli\gasket\gasket_04s.jpg	3	-1	1	0	gasket_04s.jpg	0	0.0	0	238.901326399995	238.95130670000802	0.0499803000129759	160955
161.055	50	477	0	0	tiramisu	1663	168	1	stimuli\tiramisu\tiramisu_11s.jpg	10	-1	1	0	tiramisu_11s.jpg	0	0.0	0	239.001329899998	239.05130739999	0.0499774999916553	161055
161.155	50	478	0	0	parking_meter	1120	169	1	stimuli\parking_meter\parking_meter_06s.jpg	5	-1	1	0	parking_meter_06s.jpg	0	0.0	0	239.101331899874	239.151311599882	0.0499797000084072	161155
161.255	50	479	0	0	asparagus	42	170	1	stimuli\asparagus\asparagus_10s.jpg	9	-1	1	0	asparagus_10s.jpg	0	0.0	0	239.201334799873	239.251313999994	0.0499792001210153	161255
161.355	50	480	0	0	pasta	1123	171	1	stimuli\pasta\pasta_02s.jpg	1	-1	1	0	pasta_02s.jpg	0	0.0	0	239.30133609985901	239.35131619987098	0.049980100011453	161355
161.455	50	481	0	0	whip	1809	172	1	stimuli\whip\whip_11s.jpg	10	-1	1	0	whip_11s.jpg	0	0.0	0	239.401344599901	239.451317399973	0.0499728000722826	161455
161.555	50	482	0	0	trapdoor	1703	173	1	stimuli\trapdoor\trapdoor_10s.jpg	9	-1	1	0	trapdoor_10s.jpg	0	0.0	0	239.501342199976	239.551321899984	0.0499797000084072	161555
161.655	50	483	0	0	lettuce	920	174	1	stimuli\lettuce\lettuce_01b.jpg	0	-1	1	0	lettuce_01b.jpg	0	0.0	0	239.601344400086	239.651322700083	0.0499782999977469	161655
161.755	50	484	0	0	floss	617	175	1	stimuli\floss\floss_05s.jpg	4	-1	1	0	floss_05s.jpg	0	0.0	0	239.70134439994598	239.751324600074	0.0499802001286298	161755
161.855	50	485	0	0	pole	1213	176	1	stimuli\pole\pole_06s.jpg	5	-1	1	0	pole_06s.jpg	0	0.0	0	239.80135009996602	239.851326500066	0.0499764000996947	161855
161.955	50	486	0	0	fireworks	598	177	1	stimuli\fireworks\fireworks_09s.jpg	8	-1	1	0	fireworks_09s.jpg	0	0.0	0	239.901350999949	239.951328600058	0.0499776001088321	161955
162.055	50	487	0	0	cream_cheese	437	178	1	stimuli\cream_cheese\cream_cheese_01b.jpg	0	-1	1	0	cream_cheese_01b.jpg	0	0.0	0	240.001353699947	240.051332399948	0.0499787000007927	162055
162.155	50	488	0	0	ring	1313	179	1	stimuli\ring\ring_06s.jpg	5	-1	1	0	ring_06s.jpg	0	0.0	0	240.101356399944	240.151333800051	0.0499774001073092	162155
162.255	50	489	0	0	ice-cream_cone	817	180	1	stimuli\ice-cream_cone\ice-cream_cone_07s.jpg	6	-1	1	0	ice-cream_cone_07s.jpg	0	0.0	0	240.201360099949	240.251339700073	0.0499796001240611	162255
162.355	50	490	0	0	suit	1580	181	1	stimuli\suit\suit_10s.jpg	9	-1	1	0	suit_10s.jpg	0	0.0	0	240.301360199926	240.351344299968	0.049984100041911	162355
162.455	50	491	0	0	stiletto	1554	182	1	stimuli\stiletto\stiletto_06s.jpg	5	-1	1	0	stiletto_06s.jpg	0	0.0	0	240.40136269992198	240.451346599963	0.0499839000403881	162455
162.555	50	492	0	0	jam	839	183	1	stimuli\jam\jam_10s.jpg	9	-1	1	0	jam_10s.jpg	0	0.0	0	240.50138069992002	240.551345200045	0.0499645001254976	162555
162.655	50	493	0	0	blowgun	147	184	1	stimuli\blowgun\blowgun_12s.jpg	11	-1	1	0	blowgun_12s.jpg	0	0.0	0	240.601369099924	240.651346100029	0.0499770001042634	162655
162.755	50	494	0	0	goalpost	683	185	1	stimuli\goalpost\goalpost_04s.jpg	3	-1	1	0	goalpost_04s.jpg	0	0.0	0	240.70136979990602	240.751351600047	0.04998180014081299	162755
162.855	50	495	0	0	watering_can	1792	186	1	stimuli\watering_can\watering_can_05s.jpg	4	-1	1	0	watering_can_05s.jpg	0	0.0	0	240.80137249990398	240.851352900034	0.0499804001301527	162855
162.955	50	496	0	0	tag	1616	187	1	stimuli\tag\tag_07s.jpg	6	-1	1	0	tag_07s.jpg	0	0.0	0	240.901375999907	240.951357899932	0.0499819000251591	162955
163.055	50	497	0	0	bungee	221	188	1	stimuli\bungee\bungee_11s.jpg	10	-1	1	0	bungee_11s.jpg	0	0.0	0	241.001382699935	241.05135599989399	0.0499732999596745	163055
163.155	50	498	0	0	ostrich	1084	189	1	stimuli\ostrich\ostrich_06s.jpg	5	-1	1	0	ostrich_06s.jpg	0	0.0	0	241.101379700005	241.151359099895	0.0499793998897076	163155
163.255	50	499	0	0	chest1	319	190	1	stimuli\chest1\chest1_05s.jpg	4	-1	1	0	chest1_05s.jpg	0	0.0	0	241.201383299893	241.25136159989103	0.0499782999977469	163255
163.355	50	500	0	0	sweatsuit	1593	191	1	stimuli\sweatsuit\sweatsuit_11s.jpg	10	-1	1	0	sweatsuit_11s.jpg	0	0.0	0	241.30138599989	241.35136269987598	0.0499766999855638	163355
163.455	50	501	0	0	marmalade	976	192	1	stimuli\marmalade\marmalade_12s.jpg	11	-1	1	0	marmalade_12s.jpg	0	0.0	0	241.401389899896	241.45136699988498	0.0499770999886096	163455
163.555	50	502	0	0	toaster_oven	1667	193	1	stimuli\toaster_oven\toaster_oven_07s.jpg	6	-1	1	0	toaster_oven_07s.jpg	0	0.0	0	241.501391099999	241.551367399981	0.04997629998251799	163555
163.655	50	503	0	0	bunkbed	222	194	1	stimuli\bunkbed\bunkbed_05s.jpg	4	-1	1	0	bunkbed_05s.jpg	0	0.0	0	241.601400000043	241.65137079986698	0.0499707998242229	163655
163.755	50	504	0	0	tortilla	1687	195	1	stimuli\tortilla\tortilla_03s.jpg	2	-1	1	0	tortilla_03s.jpg	0	0.0	0	241.701392699964	241.751377699897	0.0499849999323487	163755
163.855	50	505	0	0	ladle	887	196	1	stimuli\ladle\ladle_12s.jpg	11	-1	1	0	ladle_12s.jpg	0	0.0	0	241.801398799988	241.851376199862	0.0499773998744786	163855
163.955	50	506	0	0	hatchet	759	197	1	stimuli\hatchet\hatchet_03s.jpg	2	-1	1	0	hatchet_03s.jpg	0	0.0	0	241.90140009997398	241.95137810008598	0.0499780001118779	163955
164.055	50	507	0	0	birthday_cake	132	198	1	stimuli\birthday_cake\birthday_cake_02s.jpg	1	-1	1	0	birthday_cake_02s.jpg	0	0.0	0	242.001403599977	242.05138120008598	0.0499776001088321	164055
164.155	50	508	0	0	dreidel	517	199	1	stimuli\dreidel\dreidel_07s.jpg	6	-1	1	0	dreidel_07s.jpg	0	0.0	0	242.101404200075	242.151382300071	0.04997809999622401	164155
164.255	50	509	0	0	sailboat	1347	200	1	stimuli\sailboat\sailboat_06s.jpg	5	-1	1	0	sailboat_06s.jpg	0	0.0	0	242.201407300076	242.251385099953	0.0499777998775244	164255
164.355	50	510	0	0	station_wagon	1542	201	1	stimuli\station_wagon\station_wagon_10s.jpg	9	-1	1	0	station_wagon_10s.jpg	0	0.0	0	242.301409699954	242.35138690006	0.0499772001057863	164355
164.455	50	511	0	0	lunchbox	950	202	1	stimuli\lunchbox\lunchbox_03s.jpg	2	-1	1	0	lunchbox_03s.jpg	0	0.0	0	242.401412900072	242.45139049994802	0.0499775998760015	164455
164.555	50	512	0	0	swing	1598	203	1	stimuli\swing\swing_07s.jpg	6	-1	1	0	swing_07s.jpg	0	0.0	0	242.501414299943	242.551392999943	0.0499787000007927	164555
164.655	50	513	0	0	pants	1108	204	1	stimuli\pants\pants_10s.jpg	9	-1	1	0	pants_10s.jpg	0	0.0	0	242.60141910007198	242.651396600064	0.0499774999916553	164655
164.755	50	514	0	0	wheelchair	1808	205	1	stimuli\wheelchair\wheelchair_06s.jpg	5	-1	1	0	wheelchair_06s.jpg	0	0.0	0	242.701418099925	242.751404099865	0.0499859999399632	164755
164.855	50	515	0	0	screen2	1389	206	1	stimuli\screen2\screen2_04s.jpg	3	-1	1	0	screen2_04s.jpg	0	0.0	0	242.801422999939	242.85139909992	0.0499760999809951	164855
164.955	50	516	0	0	fruit	645	207	1	stimuli\fruit\fruit_02s.jpg	1	-1	1	0	fruit_02s.jpg	0	0.0	0	242.90142200002398	242.95140259992297	0.049980599898845006	164955
165.055	50	517	0	0	drain	515	208	1	stimuli\drain\drain_02s.jpg	1	-1	1	0	drain_02s.jpg	0	0.0	0	243.001426799921	243.051405400038	0.0499786001164466	165055
165.155	50	518	0	0	eggplant	550	209	1	stimuli\eggplant\eggplant_10s.jpg	9	-1	1	0	eggplant_10s.jpg	0	0.0	0	243.10142969992	243.151407700032	0.0499780001118779	165155
165.255	50	519	0	0	backscratcher	50	210	1	stimuli\backscratcher\backscratcher_12s.jpg	11	-1	1	0	backscratcher_12s.jpg	0	0.0	0	243.20142930001	243.251410099911	0.0499807999003679	165255
165.355	50	520	0	0	quesadilla	1261	211	1	stimuli\quesadilla\quesadilla_11s.jpg	10	-1	1	0	quesadilla_11s.jpg	0	0.0	0	243.30143389990602	243.351412900025	0.0499790001194924	165355
165.455	50	521	0	0	seal	1397	212	1	stimuli\seal\seal_05s.jpg	4	-1	1	0	seal_05s.jpg	0	0.0	0	243.401435799897	243.45141409989398	0.0499782999977469	165455
165.555	50	522	0	0	scanner	1375	213	1	stimuli\scanner\scanner_01b.jpg	0	-1	1	0	scanner_01b.jpg	0	0.0	0	243.501441400032	243.551416900009	0.0499754999764264	165555
165.655	50	523	0	0	man	963	214	1	stimuli\man\man_04s.jpg	3	-1	1	1	man_04s.jpg	0	0.0	0	243.601441799896	243.651419499889	0.0499776999931782	165655
165.755	50	524	0	0	counter	424	215	1	stimuli\counter\counter_10s.jpg	9	-1	1	0	counter_10s.jpg	0	0.0	0	243.701441399986	243.751423799898	0.049982399912551	165755
165.855	50	525	0	0	souffle	1498	216	1	stimuli\souffle\souffle_07s.jpg	6	-1	1	0	souffle_07s.jpg	0	0.0	0	243.801448799903	243.851425000001	0.0499762000981718	165855
165.955	50	526	0	0	knitting_needle	881	217	1	stimuli\knitting_needle\knitting_needle_06s.jpg	5	-1	1	0	knitting_needle_06s.jpg	0	0.0	0	243.90145469992402	243.951425699983	0.0499710000585765	165955
166.055	50	527	0	0	cotton_candy	421	218	1	stimuli\cotton_candy\cotton_candy_11s.jpg	10	-1	1	0	cotton_candy_11s.jpg	1	0.45016190013848206	1	244.00145079987098	244.051429599989	0.0499788001179695	166055
166.155	50	528	0	0	knob	882	219	1	stimuli\knob\knob_07s.jpg	6	-1	1	0	knob_07s.jpg	0	0.0	0	244.101454599993	244.151431799866	0.0499771998729557	166155
166.255	50	529	0	0	jalapeno	838	220	1	stimuli\jalapeno\jalapeno_06s.jpg	5	-1	1	0	jalapeno_06s.jpg	0	0.0	0	244.20145679987004	244.251434599981	0.049977800110355	166255
166.355	50	530	0	0	gutter	729	221	1	stimuli\gutter\gutter_09s.jpg	8	-1	1	0	gutter_09s.jpg	0	0.0	0	244.301457900088	244.351437699981	0.0499797998927534	166355
166.455	50	531	0	0	checkbook	310	222	1	stimuli\checkbook\checkbook_01b.jpg	0	-1	1	0	checkbook_01b.jpg	0	0.0	0	244.401459000073	244.45143759995702	0.049978599883616	166455
166.555	50	532	0	0	seahorse	1396	223	1	stimuli\seahorse\seahorse_08s.jpg	7	-1	1	0	seahorse_08s.jpg	0	0.0	0	244.50149489985802	244.551442000084	0.049947100225836004	166555
166.655	50	533	0	0	forklift	635	224	1	stimuli\forklift\forklift_07s.jpg	6	-1	1	0	forklift_07s.jpg	0	0.0	0	244.601465699961	244.65144299995202	0.0499772999901325	166655
166.755	50	534	0	0	awning	44	225	1	stimuli\awning\awning_07s.jpg	6	-1	1	0	awning_07s.jpg	0	0.0	0	244.70147109986303	244.751446200069	0.0499751002062112	166755
166.855	50	535	0	0	spam	1504	226	1	stimuli\spam\spam_05s.jpg	4	-1	1	0	spam_05s.jpg	0	0.0	0	244.801471299957	244.85144759994	0.04997629998251799	166855
166.955	50	536	0	0	sundae	1582	227	1	stimuli\sundae\sundae_02s.jpg	1	-1	1	0	sundae_02s.jpg	0	0.0	0	244.901474300073	244.951450200053	0.0499758999794722	166955
167.055	50	537	0	0	caviar	289	228	1	stimuli\caviar\caviar_07s.jpg	6	-1	1	0	caviar_07s.jpg	0	0.0	0	245.00148099986802	245.051454399945	0.0499734000768512	167055
167.155	50	538	0	0	flute	620	229	1	stimuli\flute\flute_10s.jpg	9	-1	1	0	flute_10s.jpg	0	0.0	0	245.10147990007005	245.15145389991798	0.0499739998485893	167155
167.255	50	539	0	0	jigsaw_puzzle	851	230	1	stimuli\jigsaw_puzzle\jigsaw_puzzle_09s.jpg	8	-1	1	0	jigsaw_puzzle_09s.jpg	0	0.0	0	245.201479099924	245.25145899993402	0.0499799000099301	167255
167.355	50	540	0	0	retainer	1303	231	1	stimuli\retainer\retainer_01b.jpg	0	-1	1	0	retainer_01b.jpg	0	0.0	0	245.301483700052	245.35146240005298	0.0499787000007927	167355
167.455	50	541	0	0	icicle	824	232	1	stimuli\icicle\icicle_11s.jpg	10	-1	1	0	icicle_11s.jpg	0	0.0	0	245.401487099938	245.451463799924	0.0499766999855638	167455
167.555	50	542	0	0	bathmat	89	233	1	stimuli\bathmat\bathmat_09s.jpg	8	-1	1	0	bathmat_09s.jpg	0	0.0	0	245.501489199931	245.551465800032	0.0499766001012176	167555
167.655	50	543	0	0	candy	255	234	1	stimuli\candy\candy_10s.jpg	9	-1	1	0	candy_10s.jpg	0	0.0	0	245.60149200004503	245.65146810002602	0.0499760999809951	167655
167.755	50	544	0	0	toothpaste	1680	235	1	stimuli\toothpaste\toothpaste_11s.jpg	10	-1	1	0	toothpaste_11s.jpg	0	0.0	0	245.70148889999803	245.751471299911	0.049982399912551	167755
167.855	50	545	0	0	baton4	95	236	1	stimuli\baton4\baton4_08s.jpg	7	-1	1	0	baton4_08s.jpg	0	0.0	0	245.801494699903	245.851471100003	0.0499764000996947	167855
167.955	50	546	0	0	punching_bag	1256	237	1	stimuli\punching_bag\punching_bag_03s.jpg	2	-1	1	0	punching_bag_03s.jpg	0	0.0	0	245.901497599902	245.95147480000702	0.0499772001057863	167955
168.055	50	547	0	0	pliers	1201	238	1	stimuli\pliers\pliers_09s.jpg	8	-1	1	0	pliers_09s.jpg	0	0.0	0	246.001497599995	246.051478100009	0.0499805000144988	168055
168.155	50	548	0	0	guacamole	719	239	1	stimuli\guacamole\guacamole_05s.jpg	4	-1	1	0	guacamole_05s.jpg	0	0.0	0	246.10150279989497	246.151495599886	0.0499927999917418	168155
168.255	50	549	0	0	nutcracker	1067	240	1	stimuli\nutcracker\nutcracker_06s.jpg	5	-1	1	0	nutcracker_06s.jpg	0	0.0	0	246.201505600009	246.251482199878	0.049976599868387005	168255
168.355	50	550	0	0	trigger	1713	241	1	stimuli\trigger\trigger_01s.jpg	0	-1	1	0	trigger_01s.jpg	0	0.0	0	246.30150589998797	246.35148369986598	0.0499777998775244	168355
168.455	50	551	0	0	glue	681	242	1	stimuli\glue\glue_06s.jpg	5	-1	1	0	glue_06s.jpg	0	0.0	0	246.401507499861	246.45148759987202	0.049980100011453	168455
168.555	50	552	0	0	fungus	648	243	1	stimuli\fungus\fungus_07s.jpg	6	-1	1	0	fungus_07s.jpg	0	0.0	0	246.501510799862	246.551492800005	0.0499820001423359	168555
168.655	50	553	0	0	lanyard	896	244	1	stimuli\lanyard\lanyard_09s.jpg	8	-1	1	0	lanyard_09s.jpg	0	0.0	0	246.601513699861	246.651494199876	0.0499805000144988	168655
168.755	50	554	0	0	cellphone	293	245	1	stimuli\cellphone\cellphone_08s.jpg	7	-1	1	0	cellphone_08s.jpg	0	0.0	0	246.70151469996202	246.751495899865	0.0499811999034137	168755
168.855	50	555	0	0	dip	487	246	1	stimuli\dip\dip_07s.jpg	6	-1	1	0	dip_07s.jpg	0	0.0	0	246.801519799978	246.85149640007901	0.0499766001012176	168855
168.955	50	556	0	0	headband	762	247	1	stimuli\headband\headband_12s.jpg	11	-1	1	0	headband_12s.jpg	0	0.0	0	246.901521499967	246.95149970008097	0.0499782001134008	168955
169.055	50	557	0	0	marijuana	974	248	1	stimuli\marijuana\marijuana_08s.jpg	7	-1	1	0	marijuana_08s.jpg	0	0.0	0	247.00152599997799	247.051505999872	0.0499799998942763	169055
169.155	50	558	0	0	mosquito_net	1021	249	1	stimuli\mosquito_net\mosquito_net_12s.jpg	11	-1	1	0	mosquito_net_12s.jpg	0	0.0	0	247.101527400082	247.15150379994898	0.0499763998668641	169155
169.255	50	559	0	0	thread	1651	250	1	stimuli\thread\thread_02s.jpg	1	-1	1	0	thread_02s.jpg	0	0.0	0	247.20152839994998	247.25150780007198	0.0499794001225382	169255
169.355	50	560	0	0	inhaler	828	251	1	stimuli\inhaler\inhaler_06s.jpg	5	-1	1	0	inhaler_06s.jpg	0	0.0	0	247.301532600075	247.351509199943	0.049976599868387005	169355
169.455	50	561	0	0	barnacle	75	252	1	stimuli\barnacle\barnacle_07s.jpg	6	-1	1	0	barnacle_07s.jpg	0	0.0	0	247.40153470006803	247.451538699912	0.0500039998441935	169455
169.555	50	562	0	0	braid	190	253	1	stimuli\braid\braid_07s.jpg	6	-1	1	0	braid_07s.jpg	0	0.0	0	247.501535299933	247.551513999933	0.0499787000007927	169555
169.655	50	563	0	0	pacifier	1093	254	1	stimuli\pacifier\pacifier_05s.jpg	4	-1	1	0	pacifier_05s.jpg	0	0.0	0	247.60153779992802	247.65151569992298	0.0499778999947011	169655
169.755	50	564	0	0	peacock	1130	255	1	stimuli\peacock\peacock_05s.jpg	4	-1	1	0	peacock_05s.jpg	0	0.0	0	247.70153829990898	247.75152179994598	0.0499835000373423	169755
169.855	50	565	0	0	cape	266	256	1	stimuli\cape\cape_01b.jpg	0	-1	1	0	cape_01b.jpg	0	0.0	0	247.801546900067	247.851522000041	0.0499750999733806	169855
169.955	50	566	0	0	pepper_mill	1151	257	1	stimuli\pepper_mill\pepper_mill_07s.jpg	6	-1	1	0	pepper_mill_07s.jpg	0	0.0	0	247.901571499882	247.95152490003997	0.049953400157392	169955
170.055	50	567	0	0	origami	1083	258	1	stimuli\origami\origami_08s.jpg	7	-1	1	0	origami_08s.jpg	0	0.0	0	248.00155330007004	248.051525299903	0.0499719998333603	170055
170.155	50	568	0	0	battery	97	259	1	stimuli\battery\battery_09n.jpg	8	-1	1	0	battery_09n.jpg	0	0.0	0	248.101550400024	248.151529500028	0.0499791000038385	170155
170.255	50	569	0	0	cloud	364	260	1	stimuli\cloud\cloud_06s.jpg	5	-1	1	0	cloud_06s.jpg	0	0.0	0	248.201552199898	248.251531400019	0.0499792001210153	170255
170.355	50	570	0	0	corn	412	261	1	stimuli\corn\corn_01s.jpg	0	-1	1	0	corn_01s.jpg	0	0.0	0	248.301584099885	248.351531999884	0.049947899999097	170355
170.455	50	571	0	0	radar	1271	262	1	stimuli\radar\radar_04s.jpg	3	-1	1	0	radar_04s.jpg	0	0.0	0	248.401556199882	248.45153520000198	0.0499790001194924	170455
170.555	50	572	0	0	stingray	1556	263	1	stimuli\stingray\stingray_08s.jpg	7	-1	1	0	stingray_08s.jpg	0	0.0	0	248.50155969988603	248.551539199892	0.0499795000068843	170555
170.655	50	573	0	0	garbage	655	264	1	stimuli\garbage\garbage_08s.jpg	7	-1	1	0	garbage_08s.jpg	0	0.0	0	248.60156199987998	248.65154109988399	0.0499791000038385	170655
170.755	50	574	0	0	catfish	287	265	1	stimuli\catfish\catfish_10s.jpg	9	-1	1	0	catfish_10s.jpg	0	0.0	0	248.70156689989398	248.75154319987598	0.04997629998251799	170755
170.855	50	575	0	0	coffee_bean	378	266	1	stimuli\coffee_bean\coffee_bean_11s.jpg	10	-1	1	0	coffee_bean_11s.jpg	0	0.0	0	248.801566899987	248.85154489986598	0.0499779998790473	170855
170.955	50	576	0	0	lamp	891	267	1	stimuli\lamp\lamp_05s.jpg	4	-1	1	0	lamp_05s.jpg	0	0.0	0	248.90156819997398	248.951548699988	0.0499805000144988	170955
171.055	50	577	0	0	badge	52	268	1	stimuli\badge\badge_08s.jpg	7	-1	1	0	badge_08s.jpg	0	0.0	0	249.00157419988	249.051551899873	0.0499776999931782	171055
171.155	50	578	0	0	saltshaker	1350	269	1	stimuli\saltshaker\saltshaker_09s.jpg	8	-1	1	0	saltshaker_09s.jpg	0	0.0	0	249.10157319996497	249.151557999896	0.0499847999308258	171155
171.255	50	579	0	0	octopus	1070	270	1	stimuli\octopus\octopus_05s.jpg	4	-1	1	0	octopus_05s.jpg	0	0.0	0	249.20157620008098	249.25155899999697	0.0499827999155968	171255
171.355	50	580	0	0	candy_bar	256	271	1	stimuli\candy_bar\candy_bar_07s.jpg	6	-1	1	0	candy_bar_07s.jpg	0	0.0	0	249.301578500075	249.351556800073	0.0499782999977469	171355
171.455	50	581	0	0	tuba	1723	272	1	stimuli\tuba\tuba_09s.jpg	8	-1	1	0	tuba_09s.jpg	0	0.0	0	249.401581299957	249.451560700079	0.0499794001225382	171455
171.555	50	582	0	0	train	1698	273	1	stimuli\train\train_01b.jpg	0	-1	1	0	train_01b.jpg	0	0.0	0	249.501582700061	249.55156449996898	0.0499817999079823	171555
171.655	50	583	0	0	box	181	274	1	stimuli\box\box_11s.jpg	10	-1	1	0	box_11s.jpg	0	0.0	0	249.60158849996498	249.65156530006803	0.0499768001027405	171655
171.755	50	584	0	0	whistle	1812	275	1	stimuli\whistle\whistle_10s.jpg	9	-1	1	0	whistle_10s.jpg	0	0.0	0	249.701588500058	249.75156649993698	0.0499779998790473	171755
171.855	50	585	0	0	gold	687	276	1	stimuli\gold\gold_04s.jpg	3	-1	1	0	gold_04s.jpg	0	0.0	0	249.80159180006	249.851569500053	0.0499776999931782	171855
171.955	50	586	0	0	boxer_shorts	182	277	1	stimuli\boxer_shorts\boxer_shorts_09s.jpg	8	-1	1	0	boxer_shorts_09s.jpg	0	0.0	0	249.901595399948	249.951572200051	0.0499768001027405	171955
172.055	50	587	0	0	rat	1285	278	1	stimuli\rat\rat_06s.jpg	5	-1	1	0	rat_06s.jpg	0	0.0	0	250.001595600042	250.05157559993697	0.0499799998942763	172055
172.155	50	588	0	0	oar	1068	279	1	stimuli\oar\oar_02s.jpg	1	-1	1	0	oar_02s.jpg	0	0.0	0	250.101598199923	250.151579499943	0.0499813000205904	172155
172.255	50	589	0	0	lego	913	280	1	stimuli\lego\lego_05s.jpg	4	-1	1	0	lego_05s.jpg	0	0.0	0	250.20160069991798	250.251581199933	0.0499805000144988	172255
172.355	50	590	0	0	pocket	1205	281	1	stimuli\pocket\pocket_12s.jpg	11	-1	1	0	pocket_12s.jpg	0	0.0	0	250.301605100045	250.351582099916	0.0499769998714328	172355
172.455	50	591	0	0	exerciser	561	282	1	stimuli\exerciser\exerciser_06s.jpg	5	-1	1	0	exerciser_06s.jpg	0	0.0	0	250.40160689991902	250.45158410002497	0.0499772001057863	172455
172.555	50	592	0	0	robe	1317	283	1	stimuli\robe\robe_04s.jpg	3	-1	1	0	robe_04s.jpg	0	0.0	0	250.50160839990698	250.55159089993697	0.0499825000297278	172555
172.655	50	593	0	0	streetlight	1571	284	1	stimuli\streetlight\streetlight_02s.jpg	1	-1	1	0	streetlight_02s.jpg	0	0.0	0	250.60161109990398	250.651589900022	0.0499788001179695	172655
172.755	50	594	0	0	ramp	1283	285	1	stimuli\ramp\ramp_08s.jpg	7	-1	1	0	ramp_08s.jpg	0	0.0	0	250.701610599877	250.75159260002002	0.0499820001423359	172755
172.855	50	595	0	0	matchbox	984	286	1	stimuli\matchbox\matchbox_12s.jpg	11	-1	1	0	matchbox_12s.jpg	0	0.0	0	250.80161729990502	250.851595900021	0.0499786001164466	172855
172.955	50	596	0	0	bacon	51	287	1	stimuli\bacon\bacon_12s.jpg	11	-1	1	0	bacon_12s.jpg	0	0.0	0	250.90162270003898	250.951598000014	0.0499752999749035	172955
173.055	50	597	0	0	aircraft_carrier	9	288	1	stimuli\aircraft_carrier\aircraft_carrier_07s.jpg	6	-1	1	0	aircraft_carrier_07s.jpg	0	0.0	0	251.00162149988998	251.051601700019	0.0499802001286298	173055
173.155	50	598	0	0	photo_booth	1163	289	1	stimuli\photo_booth\photo_booth_09s.jpg	8	-1	1	0	photo_booth_09s.jpg	0	0.0	0	251.10162339988202	251.151602600003	0.0499792001210153	173155
173.255	50	599	0	0	stained_glass	1531	290	1	stimuli\stained_glass\stained_glass_09s.jpg	8	-1	1	0	stained_glass_09s.jpg	0	0.0	0	251.20162459998403	251.251604699995	0.049980100011453	173255
173.355	50	600	0	0	spout	1520	291	1	stimuli\spout\spout_05s.jpg	4	-1	1	0	spout_05s.jpg	0	0.0	0	251.30162759986698	251.35160819999902	0.0499806001316756	173355
173.455	50	601	0	0	wedge	1801	292	1	stimuli\wedge\wedge_07s.jpg	6	-1	1	0	wedge_07s.jpg	0	0.0	0	251.40163069986698	251.451609099982	0.0499784001149237	173455
173.555	50	602	0	0	sombrero	1495	293	1	stimuli\sombrero\sombrero_09s.jpg	8	-1	1	0	sombrero_09s.jpg	0	0.0	0	251.501633099979	251.551610900089	0.049977800110355	173555
173.655	50	603	0	0	blouse	144	294	1	stimuli\blouse\blouse_02s.jpg	1	-1	1	1	blouse_02s.jpg	0	0.0	0	251.601633900078	251.651637099916	0.0500031998381019	173655
173.755	50	604	0	0	pincushion	1179	295	1	stimuli\pincushion\pincushion_04s.jpg	3	-1	1	0	pincushion_04s.jpg	0	0.0	0	251.70163820008702	251.75161909987202	0.049980899784714004	173755
173.855	50	605	0	0	kilt	872	296	1	stimuli\kilt\kilt_05s.jpg	4	-1	1	0	kilt_05s.jpg	0	0.0	0	251.80164419999298	251.85161909996498	0.0499748999718577	173855
