onset	duration	eventnumber	blocksequencenumber	isteststim	object	objectnumber	presentationnumber	sequencenumber	stim	stimnumber	teststimnumber	withinsequencenumber	istarget	stimname	response	rt	correct	time_stimon	time_stimoff	stimdur	sample
133.311	50	0	0	0	guardrail	720	0	0	stimuli\guardrail\guardrail_03s.jpg	2	-1	0	0	guardrail_03s.jpg	1	0.0	0	187.41883569723	187.46881274273602	0.0499770455062389	133311
133.411	50	1	0	0	bird	128	1	0	stimuli\bird\bird_08s.jpg	7	-1	0	0	bird_08s.jpg	0	0.0	0	187.518854641356	187.56882876111197	0.0499741197563708	133411
133.511	50	2	0	0	knitting_needle	881	2	0	stimuli\knitting_needle\knitting_needle_05s.jpg	4	-1	0	0	knitting_needle_05s.jpg	0	0.0	0	187.618857006077	187.668833076488	0.0499760704115033	133511
133.611	50	3	0	0	pear	1133	3	0	stimuli\pear\pear_09s.jpg	8	-1	0	0	pear_09s.jpg	0	0.0	0	187.71884986246002	187.76882178801998	0.049971925560384996	133611
133.711	50	4	0	0	lightning_bug	929	4	0	stimuli\lightning_bug\lightning_bug_06s.jpg	5	-1	0	0	lightning_bug_06s.jpg	0	0.0	0	187.818842475303	187.868823909201	0.0499814338982105	133711
133.811	50	5	0	0	pie	1168	5	0	stimuli\pie\pie_12s.jpg	11	-1	0	0	pie_12s.jpg	0	0.0	0	187.918844840024	187.969441893045	0.0505970530211926	133811
133.911	50	6	0	0	grapefruit	703	6	0	stimuli\grapefruit\grapefruit_09s.jpg	8	-1	0	0	grapefruit_09s.jpg	0	0.0	0	188.0188737805	188.068837416358	0.0499636358581483	133911
134.011	50	7	0	0	duct	527	7	0	stimuli\duct\duct_09s.jpg	8	-1	0	0	duct_09s.jpg	0	0.0	0	188.118864686228	188.16885757912	0.0499928928911686	134011
134.111	50	8	0	0	nail_polish	1049	8	0	stimuli\nail_polish\nail_polish_09s.jpg	8	-1	0	0	nail_polish_09s.jpg	0	0.0	0	188.218877291307	188.26884287735402	0.0499655860476196	134111
134.211	50	9	0	0	hood	791	9	0	stimuli\hood\hood_09s.jpg	8	-1	0	0	hood_09s.jpg	0	0.0	0	188.318863808643	188.368845974095	0.0499821654520929	134211
134.311	50	10	0	0	hot_chocolate	803	10	0	stimuli\hot_chocolate\hot_chocolate_04s.jpg	3	-1	0	0	hot_chocolate_04s.jpg	0	0.0	0	188.41886666091202	188.46886443020801	0.0499977692961693	134311
134.411	50	11	0	0	quad	1260	11	0	stimuli\quad\quad_07s.jpg	6	-1	0	0	quad_07s.jpg	0	0.0	0	188.518899502233	188.56884972844298	0.0499502262100577	134411
134.511	50	12	0	0	basketball	83	12	0	stimuli\basketball\basketball_12s.jpg	11	-1	0	0	basketball_12s.jpg	0	0.0	0	188.618875535671	188.668867453467	0.049991917796433	134511
134.611	50	13	0	0	tarp	1628	13	0	stimuli\tarp\tarp_02s.jpg	1	-1	0	0	tarp_02s.jpg	0	0.0	0	188.718890334945	188.768867623992	0.0499772890470922	134611
134.711	50	14	0	0	jukebox	857	14	0	stimuli\jukebox\jukebox_11s.jpg	10	-1	0	0	jukebox_11s.jpg	0	0.0	0	188.81888879882197	188.86887315847	0.0499843596480787	134711
134.811	50	15	0	0	salad	1348	15	0	stimuli\salad\salad_10s.jpg	9	-1	0	0	salad_10s.jpg	0	0.0	0	188.918895796407	188.968873085454	0.0499772890470922	134811
134.911	50	16	0	0	backgammon	48	16	0	stimuli\backgammon\backgammon_12s.jpg	11	-1	0	0	backgammon_12s.jpg	0	0.0	0	189.018895479385	189.068879839033	0.0499843596480787	134911
135.011	50	17	0	0	bucket	209	17	0	stimuli\bucket\bucket_08n.jpg	7	-1	0	0	bucket_08n.jpg	0	0.0	0	189.118898088112	189.168878302909	0.0499802147969604	135011
135.111	50	18	0	0	abacus	1	18	0	stimuli\abacus\abacus_05s.jpg	4	-1	0	0	abacus_05s.jpg	0	0.0	0	189.21890215994802	189.26888237474498	0.0499802147969604	135111
135.211	50	19	0	0	earring	540	19	0	stimuli\earring\earring_06n.jpg	5	-1	0	0	earring_06n.jpg	0	0.0	0	189.31890281801998	189.368872305378	0.0499694873578846	135211
135.311	50	20	0	0	tape	1622	20	0	stimuli\tape\tape_04s.jpg	3	-1	0	0	tape_04s.jpg	0	0.0	0	189.418907133397	189.468888079748	0.0499809463508427	135311
135.411	50	21	0	0	measuring_cup	986	21	0	stimuli\measuring_cup\measuring_cup_11s.jpg	10	-1	0	0	measuring_cup_11s.jpg	0	0.0	0	189.518907791935	189.56889556488	0.0499877729453146	135411
135.511	50	22	0	0	snowman	1482	22	0	stimuli\snowman\snowman_06s.jpg	5	-1	0	0	snowman_06s.jpg	0	0.0	0	189.61888285027803	189.66889524785802	0.0500123975798488	135511
135.611	50	23	0	0	parfait	1119	23	0	stimuli\parfait\parfait_09s.jpg	8	-1	0	0	parfait_09s.jpg	0	0.0	0	189.718911790289	189.768896881491	0.04998509120196099	135611
135.711	50	24	0	0	amber	18	24	0	stimuli\amber\amber_03s.jpg	2	-1	0	0	amber_03s.jpg	0	0.0	0	189.818914643023	189.86890485370498	0.0499902106821537	135711
135.811	50	25	0	0	toilet	1670	25	0	stimuli\toilet\toilet_06s.jpg	5	-1	0	0	toilet_06s.jpg	0	0.0	0	189.91891895839902	189.96890185494	0.04998289654031401	135811
135.911	50	26	0	0	fruitcake	646	26	0	stimuli\fruitcake\fruitcake_05s.jpg	4	-1	0	0	fruitcake_05s.jpg	0	0.0	0	190.018925467972	190.068905682769	0.0499802147969604	135911
136.011	50	27	0	0	phone_booth	1162	27	0	stimuli\phone_booth\phone_booth_02s.jpg	1	-1	0	0	phone_booth_02s.jpg	0	0.0	0	190.118930027355	190.168909754604	0.0499797272495925	136011
136.111	50	28	0	0	kitten	875	28	0	stimuli\kitten\kitten_06s.jpg	5	-1	0	0	kitten_06s.jpg	0	0.0	0	190.218929222785	190.268909681123	0.0499804583378136	136111
136.211	50	29	0	0	dalmatian	471	29	0	stimuli\dalmatian\dalmatian_01b.jpg	0	-1	0	0	dalmatian_01b.jpg	0	0.0	0	190.318927686661	190.36891107121497	0.0499833845533431	136211
136.311	50	30	0	0	dice	486	30	0	stimuli\dice\dice_06s.jpg	5	-1	0	0	dice_06s.jpg	0	0.0	0	190.418932977132	190.468916605692	0.0499836285598576	136311
136.411	50	31	0	0	odometer	1071	31	0	stimuli\odometer\odometer_10s.jpg	9	-1	0	0	odometer_10s.jpg	0	0.0	0	190.518937780522	190.56891555711601	0.049977776594460004	136411
136.511	50	32	0	0	navel	1052	32	0	stimuli\navel\navel_03s.jpg	2	-1	0	0	navel_03s.jpg	0	0.0	0	190.618947947398	190.668917922303	0.0499699749052525	136511
136.611	50	33	0	0	hairdryer	735	33	0	stimuli\hairdryer\hairdryer_10s.jpg	9	-1	0	0	hairdryer_10s.jpg	0	0.0	0	190.71894397307202	190.768897125032	0.0499531519599259	136611
136.711	50	34	0	0	lawnmower	905	34	0	stimuli\lawnmower\lawnmower_05n.jpg	4	-1	0	0	lawnmower_05n.jpg	0	0.0	0	190.818919518963	190.868901196867	0.0499816779047251	136711
136.811	50	35	0	0	dog	495	35	0	stimuli\dog\dog_05s.jpg	4	-1	0	0	dog_05s.jpg	0	0.0	0	190.91892066504798	190.96890185494	0.049981189891696	136811
136.911	50	36	0	0	banjo	68	36	0	stimuli\banjo\banjo_12s.jpg	11	-1	0	0	banjo_12s.jpg	0	0.0	0	191.01892424887	191.06890690187	0.0499826529994607	136911
137.011	50	37	0	0	pennant	1148	37	0	stimuli\pennant\pennant_08s.jpg	7	-1	0	0	pennant_08s.jpg	0	0.0	0	191.11894611874598	191.16890731640203	0.04996119765564799	137011
137.111	50	38	0	0	headphones	766	38	0	stimuli\headphones\headphones_09s.jpg	8	-1	0	0	headphones_09s.jpg	0	0.0	0	191.218929222785	191.268910656683	0.0499814338982105	137111
137.211	50	39	0	0	slingshot	1467	39	0	stimuli\slingshot\slingshot_02s.jpg	1	-1	0	0	slingshot_02s.jpg	0	0.0	0	191.318932075053	191.36891229031602	0.0499802152626216	137211
137.311	50	40	0	0	shaker	1408	40	0	stimuli\shaker\shaker_08s.jpg	7	-1	0	0	shaker_08s.jpg	0	0.0	0	191.418935659342	191.468913435936	0.049977776594460004	137311
137.411	50	41	0	0	guitar	723	41	0	stimuli\guitar\guitar_12s.jpg	11	-1	0	0	guitar_12s.jpg	0	0.0	0	191.518935342319	191.568917019758	0.0499816774390638	137411
137.511	50	42	0	0	pot	1230	42	0	stimuli\pot\pot_05s.jpg	4	-1	0	0	pot_05s.jpg	0	0.0	0	191.61893843859403	191.668917922303	0.0499794837087393	137511
137.611	50	43	0	0	granite	700	43	0	stimuli\granite\granite_01b.jpg	0	-1	0	0	granite_01b.jpg	0	0.0	0	191.718942997977	191.768921993673	0.0499789956957102	137611
137.711	50	44	0	0	pencil	1142	44	0	stimuli\pencil\pencil_07s.jpg	6	-1	0	0	pencil_07s.jpg	0	0.0	0	191.81894316850202	191.868925333954	0.0499821654520929	137711
137.811	50	45	0	0	pin	1177	45	0	stimuli\pin\pin_08s.jpg	7	-1	0	0	pin_08s.jpg	0	0.0	0	191.918947483879	191.968928674236	0.0499811903573573	137811
137.911	50	46	0	0	stomach	1560	46	0	stimuli\stomach\stomach_09s.jpg	8	-1	0	0	stomach_09s.jpg	0	0.0	0	192.01894911751202	192.06893177051103	0.0499826529994607	137911
138.011	50	47	0	0	cookie_cutter	401	47	0	stimuli\cookie_cutter\cookie_cutter_10s.jpg	9	-1	0	0	cookie_cutter_10s.jpg	0	0.0	0	192.118953676894	192.168933160137	0.04997948324307799	138011
138.111	50	48	0	0	dirt_bike	488	48	0	stimuli\dirt_bike\dirt_bike_02s.jpg	1	-1	0	0	dirt_bike_02s.jpg	0	0.0	0	192.218956285622	192.26893503731097	0.0499787516891956	138111
138.211	50	49	0	0	taffy	1615	49	0	stimuli\taffy\taffy_06s.jpg	5	-1	0	0	taffy_06s.jpg	0	0.0	0	192.31895913788998	192.368938621599	0.0499794837087393	138211
138.311	50	50	0	0	trumpet	1721	50	0	stimuli\trumpet\trumpet_04s.jpg	3	-1	0	0	trumpet_04s.jpg	0	0.0	0	192.418959064875	192.468941473868	0.0499824089929461	138311
138.411	50	51	0	0	solar_panel	1493	51	0	stimuli\solar_panel\solar_panel_12s.jpg	11	-1	0	0	solar_panel_12s.jpg	0	0.0	0	192.51896069850798	192.56894408306098	0.0499833845533431	138411
138.511	50	52	0	0	barbell	72	52	0	stimuli\barbell\barbell_07s.jpg	6	-1	0	0	barbell_07s.jpg	0	0.0	0	192.618964526337	192.668950105086	0.0499855787493289	138511
138.611	50	53	0	0	candy_cane	257	53	0	stimuli\candy_cane\candy_cane_12s.jpg	11	-1	0	0	candy_cane_12s.jpg	0	0.0	0	192.718970304355	192.76894930051603	0.0499789961613715	138611
138.711	50	54	0	0	goalpost	683	54	0	stimuli\goalpost\goalpost_11s.jpg	10	-1	0	0	goalpost_11s.jpg	0	0.0	0	192.818972181994	192.868953371886	0.049981189891696	138711
138.811	50	55	0	0	briefcase	200	55	0	stimuli\briefcase\briefcase_11s.jpg	10	-1	0	0	briefcase_11s.jpg	0	0.0	0	192.918975522276	192.968956468161	0.0499809458851814	138811
138.911	50	56	0	0	hamster	743	56	0	stimuli\hamster\hamster_08s.jpg	7	-1	0	0	hamster_08s.jpg	0	0.0	0	193.018977155443	193.068970292341	0.0499931368976831	138911
139.011	50	57	0	0	ping-pong_table	1184	57	0	stimuli\ping-pong_table\ping-pong_table_09s.jpg	8	-1	0	0	ping-pong_table_09s.jpg	0	0.0	0	193.11897781398102	193.168961198069	0.0499833840876818	139011
139.111	50	58	0	0	hole	785	58	0	stimuli\hole\hole_03s.jpg	2	-1	0	0	hole_03s.jpg	0	0.0	0	193.218983592	193.268963319249	0.0499797272495925	139111
139.211	50	59	0	0	music_box	1041	59	0	stimuli\music_box\music_box_11s.jpg	10	-1	0	0	music_box_11s.jpg	0	0.0	0	193.318983518984	193.36896641599	0.0499828970059752	139211
139.311	50	60	0	0	panther	1106	60	0	stimuli\panther\panther_02s.jpg	1	-1	0	0	panther_02s.jpg	0	0.0	0	193.418988321908	193.468969755806	0.0499814338982105	139311
139.411	50	61	0	0	toad	1664	61	0	stimuli\toad\toad_09s.jpg	8	-1	0	0	toad_09s.jpg	0	0.0	0	193.518989223987	193.568968707696	0.0499794837087393	139411
139.511	50	62	0	0	dreidel	517	62	0	stimuli\dreidel\dreidel_03s.jpg	2	-1	0	0	dreidel_03s.jpg	0	0.0	0	193.61899232072798	193.668975461274	0.0499831405468285	139511
139.611	50	63	0	0	breathalyzer	198	63	0	stimuli\breathalyzer\breathalyzer_05s.jpg	4	-1	0	0	breathalyzer_05s.jpg	0	0.0	0	193.719016140793	193.768973437604	0.0499572968110442	139611
139.711	50	64	0	0	rolling_pin	1328	64	0	stimuli\rolling_pin\rolling_pin_09s.jpg	8	-1	0	1	rolling_pin_09s.jpg	0	0.0	0	193.81899948837201	193.868978240527	0.0499787521548569	139711
139.811	50	65	0	0	wasp	1785	65	0	stimuli\wasp\wasp_03s.jpg	2	-1	0	0	wasp_03s.jpg	0	0.0	0	193.91900672949902	193.968987432308	0.0499807028099895	139811
139.911	50	66	0	0	curry	464	66	0	stimuli\curry\curry_03s.jpg	2	-1	0	0	curry_03s.jpg	0	0.0	0	194.019003730733	194.06898687128003	0.0499831405468285	139911
140.011	50	67	0	0	shoulder	1431	67	0	stimuli\shoulder\shoulder_05s.jpg	4	-1	0	0	shoulder_05s.jpg	0	0.0	0	194.119005851913	194.168987773359	0.0499819214455783	140011
140.111	50	68	0	0	turbine	1731	68	0	stimuli\turbine\turbine_07s.jpg	6	-1	0	0	turbine_07s.jpg	1	0.392179762013257	1	194.21900724154	194.26899111363997	0.0499838721007109	140111
140.211	50	69	0	0	goblet	685	69	0	stimuli\goblet\goblet_03s.jpg	2	-1	0	0	goblet_03s.jpg	0	0.0	0	194.31901228847	194.368991284166	0.0499789956957102	140211
140.311	50	70	0	0	crowbar	447	70	0	stimuli\crowbar\crowbar_01b.jpg	0	-1	0	0	crowbar_01b.jpg	0	0.0	0	194.419013678096	194.468992917798	0.0499792397022247	140311
140.411	50	71	0	0	manatee	964	71	0	stimuli\manatee\manatee_03s.jpg	2	-1	0	0	manatee_03s.jpg	0	0.0	0	194.51901750592498	194.568998696283	0.0499811903573573	140411
140.511	50	72	0	0	sprouts	1524	72	0	stimuli\sprouts\sprouts_12s.jpg	11	-1	0	0	sprouts_12s.jpg	0	0.0	0	194.619021090213	194.669001548551	0.0499804583378136	140511
140.611	50	73	0	0	burrito	225	73	0	stimuli\burrito\burrito_07s.jpg	6	-1	0	0	burrito_07s.jpg	0	0.0	0	194.719032719731	194.76900220708902	0.0499694873578846	140611
140.711	50	74	0	0	sundial	1583	74	0	stimuli\sundial\sundial_12s.jpg	11	-1	0	0	sundial_12s.jpg	0	0.0	0	194.81902313791198	194.869005303364	0.0499821654520929	140711
140.811	50	75	0	0	jug	853	75	0	stimuli\jug\jug_11s.jpg	10	-1	0	0	jug_11s.jpg	0	0.0	0	194.919027453288	194.969007180538	0.0499797272495925	140811
140.911	50	76	0	0	praying_mantis	1238	76	0	stimuli\praying_mantis\praying_mantis_03s.jpg	2	-1	0	0	praying_mantis_03s.jpg	0	0.0	0	195.019028843381	195.069010033272	0.049981189891696	140911
141.011	50	77	0	0	whistle	1812	77	0	stimuli\whistle\whistle_06s.jpg	5	-1	0	0	whistle_06s.jpg	0	0.0	0	195.119032671209	195.16901605529702	0.0499833840876818	141011
141.111	50	78	0	0	scooter	1382	78	0	stimuli\scooter\scooter_08s.jpg	7	-1	0	0	scooter_08s.jpg	0	0.0	0	195.21903527993697	195.269015738275	0.0499804583378136	141111
141.211	50	79	0	0	film	586	79	0	stimuli\film\film_03s.jpg	2	-1	0	0	film_03s.jpg	0	0.0	0	195.319038376212	195.369018591009	0.0499802147969604	141211
141.311	50	80	0	0	sundae	1582	80	0	stimuli\sundae\sundae_10s.jpg	9	-1	0	0	sundae_10s.jpg	0	0.0	0	195.41904147248698	195.469023637939	0.0499821654520929	141311
141.411	50	81	0	0	tie	1658	81	0	stimuli\tie\tie_06s.jpg	5	-1	0	0	tie_06s.jpg	0	0.0	0	195.519043349661	195.569023808464	0.0499804588034749	141411
141.511	50	82	0	0	dish	489	82	0	stimuli\dish\dish_01b.jpg	0	-1	0	0	dish_01b.jpg	0	0.0	0	195.61904668994202	195.66902568610402	0.0499789961613715	141511
141.611	50	83	0	0	ticktacktoe	1657	83	0	stimuli\ticktacktoe\ticktacktoe_12s.jpg	11	-1	0	0	ticktacktoe_12s.jpg	0	0.0	0	195.719050761778	195.76902902592	0.0499782641418278	141611
141.711	50	84	0	0	pedometer	1137	84	0	stimuli\pedometer\pedometer_07s.jpg	6	-1	0	0	pedometer_07s.jpg	0	0.0	0	195.81905117631	195.86903480440398	0.0499836280941963	141711
141.811	50	85	0	0	dustpan	535	85	0	stimuli\dustpan\dustpan_05s.jpg	4	-1	0	0	dustpan_05s.jpg	0	0.0	0	195.91905476013198	195.969037657138	0.0499828970059752	141811
141.911	50	86	0	0	gyroscope	731	86	0	stimuli\gyroscope\gyroscope_02s.jpg	1	-1	0	0	gyroscope_02s.jpg	0	0.0	0	196.019056149758	196.069038071204	0.0499819214455783	141911
142.011	50	87	0	0	overalls	1090	87	0	stimuli\overalls\overalls_04s.jpg	3	-1	0	0	overalls_04s.jpg	0	0.0	0	196.11905949003997	196.169040436391	0.0499809463508427	142011
142.111	50	88	0	0	pet_food	1157	88	0	stimuli\pet_food\pet_food_02s.jpg	1	-1	0	0	pet_food_02s.jpg	0	0.0	0	196.219061123673	196.269042070024	0.0499809463508427	142111
142.211	50	89	0	0	basket	82	89	0	stimuli\basket\basket_05s.jpg	4	-1	0	0	basket_05s.jpg	0	0.0	0	196.31906519504298	196.36904565384603	0.0499804588034749	142211
142.311	50	90	0	0	medal	991	90	0	stimuli\medal\medal_06s.jpg	5	-1	0	0	medal_06s.jpg	0	0.0	0	196.419067560229	196.46904753102	0.0499799707904458	142311
142.411	50	91	0	0	frame	639	91	0	stimuli\frame\frame_02s.jpg	1	-1	0	0	frame_02s.jpg	0	0.0	0	196.519068949856	196.569055260159	0.0499863103032112	142411
142.511	50	92	0	0	peppermint	1152	92	0	stimuli\peppermint\peppermint_10s.jpg	9	-1	0	0	peppermint_10s.jpg	0	0.0	0	196.61907375278	196.669052504934	0.0499787521548569	142511
142.611	50	93	0	0	swimming_pool	1596	93	0	stimuli\swimming_pool\swimming_pool_04s.jpg	3	-1	0	0	swimming_pool_04s.jpg	0	0.0	0	196.719076605514	196.76905608875703	0.04997948324307799	142611
142.711	50	94	0	0	hubcap	809	94	0	stimuli\hubcap\hubcap_04s.jpg	3	-1	0	0	hubcap_04s.jpg	0	0.0	0	196.819077263586	196.869058941491	0.0499816779047251	142711
142.811	50	95	0	0	dumpling	532	95	0	stimuli\dumpling\dumpling_04s.jpg	3	-1	0	0	dumpling_04s.jpg	0	0.0	0	196.919079628773	196.969063256867	0.0499836280941963	142811
142.911	50	96	0	0	sombrero	1495	96	0	stimuli\sombrero\sombrero_07s.jpg	6	-1	0	0	sombrero_07s.jpg	0	0.0	0	197.01908345660198	197.06906464649398	0.049981189891696	142911
143.011	50	97	0	0	nose	1063	97	0	stimuli\nose\nose_02s.jpg	1	-1	0	0	nose_02s.jpg	0	0.0	0	197.119085333776	197.169066524133	0.0499811903573573	143011
143.111	50	98	0	0	teepee	1637	98	0	stimuli\teepee\teepee_11s.jpg	10	-1	0	0	teepee_11s.jpg	0	0.0	0	197.21908916160498	197.26906888885398	0.0499797272495925	143111
143.211	50	99	0	0	crutch	452	99	0	stimuli\crutch\crutch_11s.jpg	10	-1	0	0	crutch_11s.jpg	0	0.0	0	197.319091526791	197.369072473142	0.0499809463508427	143211
143.311	50	100	0	0	prism	1241	100	0	stimuli\prism\prism_02s.jpg	1	-1	0	0	prism_02s.jpg	0	0.0	0	197.41909511061402	197.46907508187002	0.0499799712561071	143311
143.411	50	101	0	0	cabinet	233	101	0	stimuli\cabinet\cabinet_01s.jpg	0	-1	0	0	cabinet_01s.jpg	0	0.0	0	197.519095281139	197.569077934138	0.0499826529994607	143411
143.511	50	102	0	0	raspberry	1284	102	0	stimuli\raspberry\raspberry_04s.jpg	3	-1	0	0	raspberry_04s.jpg	0	0.0	0	197.61909837788002	197.669079567771	0.049981189891696	143511
143.611	50	103	0	0	tuba	1723	103	0	stimuli\tuba\tuba_05s.jpg	4	-1	0	0	tuba_05s.jpg	0	0.0	0	197.71910391235699	197.769085833803	0.0499819214455783	143611
143.711	50	104	0	0	counter	424	104	0	stimuli\counter\counter_05s.jpg	4	-1	0	0	counter_05s.jpg	0	0.0	0	197.819107252173	197.86909136827998	0.0499841161072254	143711
143.811	50	105	0	0	highchair	777	105	0	stimuli\highchair\highchair_04s.jpg	3	-1	0	0	highchair_04s.jpg	0	0.0	0	197.919108642265	197.96908641886	0.049977776594460004	143811
143.911	50	106	0	0	melon	994	106	0	stimuli\melon\melon_01b.jpg	0	-1	0	0	melon_01b.jpg	0	0.0	0	198.019110275432	198.069089515135	0.0499792397022247	143911
144.011	50	107	0	0	dress	518	107	0	stimuli\dress\dress_08s.jpg	7	-1	0	0	dress_08s.jpg	0	0.0	0	198.11911361571399	198.16909309942298	0.0499794837087393	144011
144.111	50	108	0	0	powder	1236	108	0	stimuli\powder\powder_04s.jpg	3	-1	0	0	powder_04s.jpg	0	0.0	0	198.219115492888	198.269095951691	0.0499804588034749	144111
144.211	50	109	0	0	whip	1809	109	0	stimuli\whip\whip_09s.jpg	8	-1	0	0	whip_09s.jpg	0	0.0	0	198.319117126521	198.36909953597902	0.0499824094586074	144211
144.311	50	110	0	0	chandelier	305	110	0	stimuli\chandelier\chandelier_12s.jpg	11	-1	0	0	chandelier_12s.jpg	0	0.0	0	198.419119491708	198.4691019007	0.0499824089929461	144311
144.411	50	111	0	0	leech	909	111	0	stimuli\leech\leech_03s.jpg	2	-1	0	0	leech_03s.jpg	0	0.0	0	198.51912307553002	198.56910475343497	0.0499816779047251	144411
144.511	50	112	0	0	apple_tree	31	112	0	stimuli\apple_tree\apple_tree_05s.jpg	4	-1	0	0	apple_tree_05s.jpg	0	0.0	0	198.619125440717	198.66910638660198	0.0499809458851814	144511
144.611	50	113	0	0	cinnamon	348	113	0	stimuli\cinnamon\cinnamon_03s.jpg	2	-1	0	0	cinnamon_03s.jpg	0	0.0	0	198.719129756093	198.76911167753897	0.0499819214455783	144611
144.711	50	114	0	0	parking_meter	1120	114	0	stimuli\parking_meter\parking_meter_10s.jpg	9	-1	0	0	parking_meter_10s.jpg	0	0.0	0	198.81913163326698	198.869111604523	0.0499799712561071	144711
144.811	50	115	0	0	valve	1751	115	0	stimuli\valve\valve_01b.jpg	0	-1	0	1	valve_01b.jpg	0	0.0	0	198.91913351044101	198.969115188345	0.0499816779047251	144811
144.911	50	116	0	0	thermos	1647	116	0	stimuli\thermos\thermos_02s.jpg	1	-1	0	0	thermos_02s.jpg	0	0.0	0	199.01913636317502	199.06911755306598	0.049981189891696	144911
145.011	50	117	0	0	stockings	1559	117	0	stimuli\stockings\stockings_06s.jpg	5	-1	0	0	stockings_06s.jpg	0	0.0	0	199.119138484355	199.169119430706	0.0499809463508427	145011
145.111	50	118	0	0	boot	169	118	0	stimuli\boot\boot_03s.jpg	2	-1	0	0	boot_03s.jpg	0	0.0	0	199.219142312184	199.26912130788003	0.0499789956957102	145111
145.211	50	119	0	0	board	152	119	0	stimuli\board\board_06s.jpg	5	-1	0	0	board_06s.jpg	1	0.4503017510287461	1	199.319144433364	199.36912635481002	0.0499819214455783	145211
145.311	50	120	0	0	eclair	544	120	0	stimuli\eclair\eclair_11s.jpg	10	-1	0	0	eclair_11s.jpg	0	0.0	0	199.419163865037	199.46913262084098	0.0499687558040023	145311
145.411	50	121	0	0	nail_clippers	1047	121	0	stimuli\nail_clippers\nail_clippers_05s.jpg	4	-1	0	0	nail_clippers_05s.jpg	0	0.0	0	199.51914965082	199.56913352292	0.0499838721007109	145411
145.511	50	122	0	0	watering_can	1792	122	0	stimuli\watering_can\watering_can_12s.jpg	11	-1	0	0	watering_can_12s.jpg	0	0.0	0	199.619152259547	199.66913686320203	0.0499846036545932	145511
145.611	50	123	0	0	radish	1274	123	0	stimuli\radish\radish_12s.jpg	11	-1	0	0	radish_12s.jpg	0	0.0	0	199.719156574924	199.769135083072	0.0499785081483424	145611
145.711	50	124	0	0	wok	1830	124	0	stimuli\wok\wok_09s.jpg	8	-1	0	0	wok_09s.jpg	0	0.0	0	199.819156257901	199.869140130002	0.0499838721007109	145711
145.811	50	125	0	0	marker	975	125	0	stimuli\marker\marker_05s.jpg	4	-1	0	0	marker_05s.jpg	0	0.0	0	199.91915911063597	199.96914225118198	0.0499831405468285	145811
145.911	50	126	0	0	sword	1602	126	0	stimuli\sword\sword_06s.jpg	5	-1	0	0	sword_06s.jpg	0	0.0	0	200.019163182471	200.069155831356	0.04999264888465401	145911
146.011	50	127	0	0	tennis_ball	1642	127	0	stimuli\tennis_ball\tennis_ball_08s.jpg	7	-1	0	0	tennis_ball_08s.jpg	0	0.0	0	200.11916310899	200.169158927631	0.0499958186410367	146011
146.111	50	128	0	0	lamppost	892	128	0	stimuli\lamppost\lamppost_06s.jpg	5	-1	0	0	lamppost_06s.jpg	0	0.0	0	200.219179371372	200.26915495377	0.0499755823984742	146111
146.211	50	129	0	0	handle	748	129	0	stimuli\handle\handle_06s.jpg	5	-1	0	0	handle_06s.jpg	0	0.0	0	200.31917442195098	200.36915293009997	0.0499785081483424	146211
146.311	50	130	0	0	stiletto	1554	130	0	stimuli\stiletto\stiletto_12s.jpg	11	-1	0	0	stiletto_12s.jpg	0	0.0	0	200.419174592476	200.469155538827	0.0499809463508427	146311
146.411	50	131	0	0	bandanna	67	131	0	stimuli\bandanna\bandanna_12s.jpg	11	-1	0	0	bandanna_12s.jpg	0	0.0	0	200.519177445211	200.569156440906	0.0499789956957102	146411
146.511	50	132	0	0	prune	1244	132	0	stimuli\prune\prune_05s.jpg	4	-1	0	0	prune_05s.jpg	0	0.0	0	200.61918078549198	200.669159049634	0.0499782641418278	146511
146.612	50	133	0	0	easel	542	133	0	stimuli\easel\easel_07s.jpg	6	-1	0	0	easel_07s.jpg	0	0.0	0	200.719194609206	200.769162145909	0.0499675367027521	146612
146.712	50	134	0	0	rock	1319	134	0	stimuli\rock\rock_11s.jpg	10	-1	0	0	rock_11s.jpg	0	0.0	0	200.819198681042	200.869164511096	0.0499658300541341	146712
146.812	50	135	0	0	pudding	1246	135	0	stimuli\pudding\pudding_09s.jpg	8	-1	0	0	pudding_09s.jpg	0	0.0	0	200.919189343229	200.969168094918	0.0499787516891956	146812
146.912	50	136	0	0	nightshirt	1058	136	0	stimuli\nightshirt\nightshirt_01b.jpg	0	-1	0	0	nightshirt_01b.jpg	0	0.0	0	201.01919170794997	201.06917070364602	0.0499789956957102	146912
147.012	50	137	0	0	scone	1380	137	0	stimuli\scone\scone_10s.jpg	9	-1	0	0	scone_10s.jpg	0	0.0	0	201.119197486434	201.169174043927	0.0499765574932098	147012
147.112	50	138	0	0	mango	966	138	0	stimuli\mango\mango_04s.jpg	3	-1	0	0	mango_04s.jpg	0	0.0	0	201.219194243662	201.26918006595199	0.0499858222901821	147112
147.212	50	139	0	0	skeleton	1450	139	0	stimuli\skeleton\skeleton_10s.jpg	9	-1	0	0	skeleton_10s.jpg	0	0.0	0	201.31920099724098	201.369178529829	0.0499775325879455	147212
147.312	50	140	0	0	rhubarb	1307	140	0	stimuli\rhubarb\rhubarb_02n.jpg	1	-1	0	0	rhubarb_02n.jpg	0	0.0	0	201.419200192671	201.46918211411702	0.0499819214455783	147312
147.412	50	141	0	0	teddy_bear	1635	141	0	stimuli\teddy_bear\teddy_bear_08s.jpg	7	-1	0	0	teddy_bear_08s.jpg	0	0.0	0	201.51920377649398	201.569196913391	0.0499931368976831	147412
147.512	50	142	0	0	fruit	645	142	0	stimuli\fruit\fruit_08s.jpg	7	-1	0	0	fruit_08s.jpg	0	0.0	0	201.619205653667	201.669188550673	0.0499828970059752	147512
147.612	50	143	0	0	train	1698	143	0	stimuli\train\train_10n.jpg	9	-1	0	0	train_10n.jpg	0	0.0	0	201.71920850640203	201.76918701455003	0.0499785081483424	147612
147.712	50	144	0	0	axe	45	144	0	stimuli\axe\axe_01b.jpg	0	-1	0	0	axe_01b.jpg	0	0.0	0	201.819213553332	201.869193768129	0.0499802147969604	147712
147.812	50	145	0	0	pine_tree	1181	145	0	stimuli\pine_tree\pine_tree_04s.jpg	3	-1	0	0	pine_tree_04s.jpg	0	0.0	0	201.91921518696498	201.96919808350498	0.04998289654031401	147812
147.912	50	146	0	0	doghouse	497	146	0	stimuli\doghouse\doghouse_09s.jpg	8	-1	0	0	doghouse_09s.jpg	0	0.0	0	202.019216089044	202.069199717138	0.0499836280941963	147912
148.012	50	147	0	0	crank	432	147	0	stimuli\crank\crank_02s.jpg	1	-1	0	0	crank_02s.jpg	0	0.0	0	202.119218453765	202.16919818101502	0.0499797272495925	148012
148.112	50	148	0	0	grater	708	148	0	stimuli\grater\grater_05s.jpg	4	-1	0	0	grater_05s.jpg	0	0.0	0	202.219219843391	202.269201765303	0.0499819219112396	148112
148.212	50	149	0	0	knot	883	149	0	stimuli\knot\knot_08s.jpg	7	-1	0	0	knot_08s.jpg	0	0.0	0	202.319224646781	202.369205349125	0.0499807023443282	148212
148.312	50	150	0	0	shelf	1416	150	0	stimuli\shelf\shelf_04s.jpg	3	-1	0	0	shelf_04s.jpg	0	0.0	0	202.419227499049	202.469208201859	0.0499807028099895	148312
148.412	50	151	0	0	cocoon	376	151	0	stimuli\cocoon\cocoon_12s.jpg	11	-1	0	0	cocoon_12s.jpg	0	0.0	0	202.519231570885	202.569214954972	0.0499833840876818	148412
148.512	50	152	0	0	clothes	361	152	0	stimuli\clothes\clothes_04s.jpg	3	-1	0	0	clothes_04s.jpg	0	0.0	0	202.619244907051	202.669212443754	0.0499675367027521	148512
148.612	50	153	0	0	mallet	962	153	0	stimuli\mallet\mallet_06s.jpg	5	-1	0	0	mallet_06s.jpg	0	0.0	0	202.719235325698	202.769217734691	0.0499824089929461	148612
148.712	50	154	0	0	coral	406	154	0	stimuli\coral\coral_09s.jpg	8	-1	0	0	coral_09s.jpg	0	0.0	0	202.81923988461497	202.86921936832402	0.0499794837087393	148712
148.812	50	155	0	0	cannonball	261	155	0	stimuli\cannonball\cannonball_11s.jpg	10	-1	0	0	cannonball_11s.jpg	0	0.0	0	202.919240299147	202.96922807209202	0.0499877729453146	148812
148.912	50	156	0	0	broccoli	201	156	0	stimuli\broccoli\broccoli_03s.jpg	2	-1	0	0	broccoli_03s.jpg	0	0.0	0	203.01924217632	203.069224341772	0.0499821654520929	148912
149.012	50	157	0	0	cash_machine	279	157	0	stimuli\cash_machine\cash_machine_03s.jpg	2	-1	0	0	cash_machine_03s.jpg	0	0.0	0	203.11924697971	203.169230851345	0.0499838716350496	149012
149.112	50	158	0	0	vending_machine	1757	158	0	stimuli\vending_machine\vending_machine_05s.jpg	4	-1	0	0	vending_machine_05s.jpg	0	0.0	0	203.219250075985	203.269232241437	0.0499821654520929	149112
149.212	50	159	0	0	tab	1607	159	0	stimuli\tab\tab_01b.jpg	0	-1	0	0	tab_01b.jpg	0	0.0	0	203.31925292871898	203.369233631063	0.0499807023443282	149212
149.312	50	160	0	0	pickax	1166	160	0	stimuli\pickax\pickax_04s.jpg	3	-1	0	0	pickax_04s.jpg	0	0.0	0	203.41926577733798	203.46923794643996	0.0499721691012383	149312
149.412	50	161	0	0	grapevine	704	161	0	stimuli\grapevine\grapevine_08s.jpg	7	-1	0	0	grapevine_08s.jpg	0	0.0	0	203.51925741461997	203.56923616677503	0.0499787521548569	149412
149.512	50	162	0	0	orangutan	1080	162	0	stimuli\orangutan\orangutan_11s.jpg	10	-1	0	0	orangutan_11s.jpg	0	0.0	0	203.619263924193	203.669240238145	0.0499763139523566	149512
149.612	50	163	0	0	xylophone	1843	163	0	stimuli\xylophone\xylophone_06s.jpg	5	-1	0	0	xylophone_06s.jpg	0	0.0	0	203.71926141297402	203.769242115784	0.0499807028099895	149612
149.712	50	164	0	0	bungee	221	164	0	stimuli\bungee\bungee_10s.jpg	9	-1	0	0	bungee_10s.jpg	0	0.0	0	203.819265972357	203.869244236499	0.0499782641418278	149712
149.812	50	165	0	0	egg	546	165	0	stimuli\egg\egg_08s.jpg	7	-1	0	0	egg_08s.jpg	0	0.0	0	203.919267361984	203.969252696726	0.0499853347428143	149812
149.912	50	166	0	0	ukulele	1742	166	0	stimuli\ukulele\ukulele_10s.jpg	9	-1	0	0	ukulele_10s.jpg	0	0.0	0	204.019270214718	204.069249697961	0.04997948324307799	149912
150.012	50	167	0	0	aardvark	0	167	0	stimuli\aardvark\aardvark_05s.jpg	4	-1	0	0	aardvark_05s.jpg	0	0.0	0	204.119275261648	204.16925767064097	0.0499824089929461	150012
150.112	50	168	0	0	router	1336	168	0	stimuli\router\router_01b.jpg	0	-1	0	0	router_01b.jpg	0	0.0	0	204.21927445707803	204.26925613451698	0.0499816774390638	150112
150.212	50	169	0	0	can	250	169	0	stimuli\can\can_12s.jpg	11	-1	0	0	can_12s.jpg	0	0.0	0	204.319294863846	204.369259962346	0.0499650985002518	150212
150.312	50	170	0	0	jetski	848	170	0	stimuli\jetski\jetski_06s.jpg	5	-1	0	0	jetski_06s.jpg	0	0.0	0	204.419283331372	204.46927451808	0.0499911867082119	150312
150.412	50	171	0	0	blazer	137	171	0	stimuli\blazer\blazer_04s.jpg	3	-1	0	0	blazer_04s.jpg	0	0.0	0	204.519284233451	204.569264936261	0.0499807028099895	150412
150.512	50	172	0	0	hash	756	172	0	stimuli\hash\hash_12s.jpg	11	-1	0	0	hash_12s.jpg	0	0.0	0	204.61928757373198	204.669278516434	0.0499909427016973	150512
150.612	50	173	0	0	asparagus	42	173	0	stimuli\asparagus\asparagus_11s.jpg	10	-1	0	0	asparagus_11s.jpg	0	0.0	0	204.719289694913	204.769270397257	0.0499807023443282	150612
150.712	50	174	0	0	earwig	541	174	0	stimuli\earwig\earwig_07n.jpg	6	-1	0	0	earwig_07n.jpg	0	0.0	0	204.81929376674802	204.86927373753898	0.0499799707904458	150712
150.812	50	175	0	0	bassinet	85	175	0	stimuli\bassinet\bassinet_03s.jpg	2	-1	0	0	bassinet_03s.jpg	0	0.0	0	204.919294424821	204.969272932969	0.0499785081483424	150812
150.912	50	176	0	0	catfish	287	176	0	stimuli\catfish\catfish_09s.jpg	8	-1	0	0	catfish_09s.jpg	0	0.0	0	205.019297033548	205.06927919900002	0.0499821654520929	150912
151.012	50	177	0	0	cobra	371	177	0	stimuli\cobra\cobra_06s.jpg	5	-1	0	0	cobra_06s.jpg	0	0.0	0	205.119303787127	205.16927985707298	0.049976069945842	151012
151.112	50	178	0	0	spider	1513	178	0	stimuli\spider\spider_01b.jpg	0	-1	0	0	spider_01b.jpg	0	0.0	0	205.21930444566502	205.269284416456	0.0499799707904458	151112
151.212	50	179	0	0	turf	1732	179	0	stimuli\turf\turf_08s.jpg	7	-1	0	0	turf_08s.jpg	0	0.0	0	205.31930583529203	205.36928702518298	0.049981189891696	151212
151.312	50	180	0	0	mirror	1005	180	0	stimuli\mirror\mirror_09s.jpg	8	-1	0	0	mirror_09s.jpg	0	0.0	0	205.41931941546503	205.469301824458	0.0499824089929461	151312
151.412	50	181	0	0	corkscrew	411	181	0	stimuli\corkscrew\corkscrew_09s.jpg	8	-1	0	0	corkscrew_09s.jpg	0	0.0	0	205.519311052747	205.56930955313098	0.0499985003843904	151412
151.512	50	182	0	0	swordfish	1603	182	0	stimuli\swordfish\swordfish_07s.jpg	6	-1	0	0	swordfish_07s.jpg	0	0.0	0	205.619313417468	205.66929265717	0.0499792397022247	151512
151.612	50	183	0	0	walker1	1773	183	0	stimuli\walker1\walker1_05s.jpg	4	-1	0	0	walker1_05s.jpg	0	0.0	0	205.71931358845902	205.76929794810698	0.0499843596480787	151612
151.712	50	184	0	0	tinsel	1662	184	0	stimuli\tinsel\tinsel_09s.jpg	8	-1	0	0	tinsel_09s.jpg	0	0.0	0	205.819328387734	205.869298362639	0.0499699749052525	151712
151.812	50	185	0	0	mold2	1013	185	0	stimuli\mold2\mold2_10s.jpg	9	-1	0	0	mold2_10s.jpg	0	0.0	0	205.919322463218	205.96930365311002	0.049981189891696	151812
151.912	50	186	0	0	orchid	1081	186	0	stimuli\orchid\orchid_02s.jpg	1	-1	0	0	orchid_02s.jpg	0	0.0	0	206.019326534588	206.069306749385	0.0499802147969604	151912
152.012	50	187	0	0	lighter	928	187	0	stimuli\lighter\lighter_05s.jpg	4	-1	0	1	lighter_05s.jpg	0	0.0	0	206.119325730018	206.169319598004	0.0499938679859042	152012
152.112	50	188	0	0	perfume	1154	188	0	stimuli\perfume\perfume_01b.jpg	0	-1	0	0	perfume_01b.jpg	0	0.0	0	206.21933004539503	206.26930904108997	0.0499789956957102	152112
152.212	50	189	0	0	phone	1161	189	0	stimuli\phone\phone_04s.jpg	3	-1	0	0	phone_04s.jpg	0	0.0	0	206.319331679028	206.369313600473	0.0499819214455783	152212
152.312	50	190	0	0	amplifier	20	190	0	stimuli\amplifier\amplifier_03s.jpg	2	-1	0	0	amplifier_03s.jpg	1	0.35016504675149895	1	206.41933745704603	206.469316940755	0.0499794837087393	152312
152.412	50	191	0	0	shoe	1423	191	0	stimuli\shoe\shoe_02s.jpg	1	-1	0	0	shoe_02s.jpg	0	0.0	0	206.51933738403	206.569318086375	0.0499807023443282	152412
152.512	50	192	0	0	boar	151	192	0	stimuli\boar\boar_10s.jpg	9	-1	0	0	boar_10s.jpg	0	0.0	0	206.619340968318	206.669321426656	0.0499804583378136	152512
152.612	50	193	0	0	cloak	358	193	0	stimuli\cloak\cloak_04s.jpg	3	-1	0	0	cloak_04s.jpg	0	0.0	0	206.719341138843	206.769323060289	0.0499819214455783	152612
152.712	50	194	0	0	charger	308	194	0	stimuli\charger\charger_05s.jpg	4	-1	0	0	charger_05s.jpg	0	0.0	0	206.819343747571	206.869326644111	0.04998289654031401	152712
152.812	50	195	0	0	paper	1112	195	0	stimuli\paper\paper_07s.jpg	6	-1	0	0	paper_07s.jpg	0	0.0	0	206.91934684384603	206.969329740852	0.0499828970059752	152812
152.912	50	196	0	0	gong	692	196	0	stimuli\gong\gong_07s.jpg	6	-1	0	0	gong_07s.jpg	0	0.0	0	207.019347989932	207.06933039892502	0.0499824089929461	152912
153.012	50	197	0	0	reindeer	1301	197	0	stimuli\reindeer\reindeer_04s.jpg	3	-1	0	0	reindeer_04s.jpg	0	0.0	0	207.11935011111197	207.16933544585498	0.0499853347428143	153012
153.112	50	198	0	0	baton4	95	198	0	stimuli\baton4\baton4_03s.jpg	2	-1	0	0	baton4_03s.jpg	0	0.0	0	207.219357108232	207.269337323029	0.0499802147969604	153112
153.212	50	199	0	0	radio	1273	199	0	stimuli\radio\radio_03s.jpg	2	-1	0	0	radio_03s.jpg	0	0.0	0	207.31935874186502	207.36933968821498	0.0499809463508427	153212
153.312	50	200	0	0	desk	480	200	0	stimuli\desk\desk_06s.jpg	5	-1	0	0	desk_06s.jpg	0	0.0	0	207.419360375497	207.46934278448998	0.0499824089929461	153312
153.412	50	201	0	0	skull	1458	201	0	stimuli\skull\skull_05s.jpg	4	-1	0	0	skull_05s.jpg	0	0.0	0	207.519362984225	207.56934539321801	0.0499824089929461	153412
153.512	50	202	0	0	bin	125	202	0	stimuli\bin\bin_03s.jpg	2	-1	0	0	bin_03s.jpg	0	0.0	0	207.619365592953	207.669342882	0.0499772890470922	153512
153.612	50	203	0	0	helicopter	775	203	0	stimuli\helicopter\helicopter_03s.jpg	2	-1	0	0	helicopter_03s.jpg	0	0.0	0	207.71936942078202	207.769350610673	0.049981189891696	153612
153.712	50	204	0	0	candelabra	252	204	0	stimuli\candelabra\candelabra_11s.jpg	10	-1	0	0	candelabra_11s.jpg	0	0.0	0	207.81937032286098	207.869354194961	0.0499838721007109	153712
153.812	50	205	0	0	tree_trunk	1709	205	0	stimuli\tree_trunk\tree_trunk_01b.jpg	0	-1	0	0	tree_trunk_01b.jpg	0	0.0	0	207.919376100879	207.969355828129	0.0499797272495925	153812
153.912	50	206	0	0	box	181	206	0	stimuli\box\box_02s.jpg	1	-1	0	0	box_02s.jpg	0	0.0	0	208.01937602786302	208.06935624266004	0.0499802147969604	153912
154.012	50	207	0	0	flower	619	207	0	stimuli\flower\flower_11s.jpg	10	-1	0	0	flower_11s.jpg	0	0.0	0	208.11937839305	208.169361777138	0.0499833840876818	154012
154.112	50	208	0	0	bedpost	110	208	0	stimuli\bedpost\bedpost_02s.jpg	1	-1	0	0	bedpost_02s.jpg	0	0.0	0	208.219383439515	208.26936706807498	0.0499836285598576	154112
154.212	50	209	0	0	parsley	1122	209	0	stimuli\parsley\parsley_07n.jpg	6	-1	0	0	parsley_07n.jpg	0	0.0	0	208.319382147398	208.36936992034302	0.0499877729453146	154212
154.312	50	210	0	0	football_helmet	630	210	0	stimuli\football_helmet\football_helmet_07s.jpg	6	-1	0	0	football_helmet_07s.jpg	0	0.0	0	208.41939158318598	208.46936911577401	0.0499775325879455	154312
154.412	50	211	0	0	waffle_iron	1771	211	0	stimuli\waffle_iron\waffle_iron_11s.jpg	10	-1	0	0	waffle_iron_11s.jpg	0	0.0	0	208.519389803056	208.569373675156	0.0499838721007109	154412
154.512	50	212	0	0	punch1	1254	212	0	stimuli\punch1\punch1_04s.jpg	3	-1	0	0	punch1_04s.jpg	0	0.0	0	208.61939387489102	208.669373602141	0.0499797272495925	154512
154.612	50	213	0	0	spaghetti	1503	213	0	stimuli\spaghetti\spaghetti_09s.jpg	8	-1	0	0	spaghetti_09s.jpg	0	0.0	0	208.71939892182098	208.769376210868	0.0499772890470922	154612
154.712	50	214	0	0	padlock	1095	214	0	stimuli\padlock\padlock_11s.jpg	10	-1	0	0	padlock_11s.jpg	0	0.0	0	208.819399579894	208.869399787392	0.0500002074986696	154712
154.812	50	215	0	0	chariot	309	215	0	stimuli\chariot\chariot_10s.jpg	9	-1	0	0	chariot_10s.jpg	0	0.0	0	208.91941803647202	208.96939313132302	0.0499750948511064	154812
154.912	50	216	0	0	patty	1126	216	0	stimuli\patty\patty_01b.jpg	0	-1	0	0	patty_01b.jpg	0	0.0	0	209.01941308705102	209.069399640895	0.0499865538440645	154912
155.012	50	217	0	0	pipe2	1187	217	0	stimuli\pipe2\pipe2_06s.jpg	5	-1	0	1	pipe2_06s.jpg	0	0.0	0	209.119423009921	209.16940444381902	0.0499814338982105	155012
155.112	50	218	0	0	stool	1561	218	0	stimuli\stool\stool_10s.jpg	9	-1	0	0	stool_10s.jpg	0	0.0	0	209.219424399547	209.269402420148	0.0499780206009746	155112
155.212	50	219	0	0	eraser	559	219	0	stimuli\eraser\eraser_04s.jpg	3	-1	0	0	eraser_04s.jpg	0	0.0	0	209.31942066922798	209.36940381024	0.0499831410124898	155212
155.312	50	220	0	0	racehorse	1267	220	0	stimuli\racehorse\racehorse_07s.jpg	6	-1	0	0	racehorse_07s.jpg	0	0.0	0	209.419424497057	209.46940812561698	0.0499836285598576	155312
155.412	50	221	0	0	piecrust	1169	221	0	stimuli\piecrust\piecrust_06s.jpg	5	-1	0	0	piecrust_06s.jpg	1	0.441918849013746	1	209.519430275541	209.569408540148	0.0499782646074891	155412
155.512	50	222	0	0	book	165	222	0	stimuli\book\book_02s.jpg	1	-1	0	0	book_02s.jpg	0	0.0	0	209.619428495876	209.66941236751202	0.0499838716350496	155512
155.612	50	223	0	0	videocassette	1761	223	0	stimuli\videocassette\videocassette_02n.jpg	1	-1	0	0	videocassette_02n.jpg	0	0.0	0	209.719439637847	209.76942838588698	0.0499887480400503	155612
155.712	50	224	0	0	missile	1006	224	0	stimuli\missile\missile_01b.jpg	0	-1	0	0	missile_01b.jpg	0	0.0	0	209.819450292271	209.869431238621	0.0499809463508427	155712
155.812	50	225	0	0	granola	701	225	0	stimuli\granola\granola_01b.jpg	0	-1	0	0	granola_01b.jpg	0	0.0	0	209.91945485165297	209.96943384734902	0.0499789956957102	155812
155.912	50	226	0	0	peg	1139	226	0	stimuli\peg\peg_04s.jpg	3	-1	0	0	peg_04s.jpg	0	0.0	0	210.01946453098202	210.069436943624	0.0499724126420915	155912
156.012	50	227	0	0	beard	106	227	0	stimuli\beard\beard_09s.jpg	8	-1	0	0	beard_09s.jpg	0	0.0	0	210.11946128821	210.16943760216202	0.0499763139523566	156012
156.112	50	228	0	0	cable	234	228	0	stimuli\cable\cable_10s.jpg	9	-1	0	0	cable_10s.jpg	0	0.0	0	210.21945780143102	210.269442649093	0.0499848476611078	156112
156.212	50	229	0	0	jersey	846	229	0	stimuli\jersey\jersey_08s.jpg	7	-1	0	0	jersey_08s.jpg	0	0.0	0	210.319461385719	210.36944525782	0.0499838721007109	156212
156.312	50	230	0	0	juicer1	855	230	0	stimuli\juicer1\juicer1_07s.jpg	6	-1	0	0	juicer1_07s.jpg	0	0.0	0	210.419462775346	210.469447866548	0.04998509120196099	156312
156.412	50	231	0	0	gum	724	231	0	stimuli\gum\gum_02s.jpg	1	-1	0	0	gum_02s.jpg	0	0.0	0	210.519470504019	210.569450962823	0.0499804588034749	156412
156.512	50	232	0	0	flute	620	232	0	stimuli\flute\flute_07s.jpg	6	-1	0	0	flute_07s.jpg	0	0.0	0	210.61947481939603	210.66945064580102	0.0499758264049888	156512
156.612	50	233	0	0	periscope	1155	233	0	stimuli\periscope\periscope_10s.jpg	9	-1	0	0	periscope_10s.jpg	0	0.0	0	210.719471333083	210.769452522974	0.049981189891696	156612
156.712	50	234	0	0	stilt	1555	234	0	stimuli\stilt\stilt_02s.jpg	1	-1	0	0	stilt_02s.jpg	0	0.0	0	210.81947613600602	210.86945659481003	0.0499804588034749	156712
156.812	50	235	0	0	milk	1001	235	0	stimuli\milk\milk_04s.jpg	3	-1	0	0	milk_04s.jpg	0	0.0	0	210.919481670484	210.969461397734	0.0499797272495925	156812
156.912	50	236	0	0	poppy	1224	236	0	stimuli\poppy\poppy_02s.jpg	1	-1	0	0	poppy_02s.jpg	0	0.0	0	211.01948379166402	211.06947205215698	0.0499882604926825	156912
157.012	50	237	0	0	caterpillar	286	237	0	stimuli\caterpillar\caterpillar_09s.jpg	8	-1	0	0	caterpillar_09s.jpg	0	0.0	0	211.119485181291	211.169467590749	0.0499824094586074	157012
157.112	50	238	0	0	birdcage	130	238	0	stimuli\birdcage\birdcage_11s.jpg	10	-1	0	0	birdcage_11s.jpg	0	0.0	0	211.21948705893	211.269467517268	0.0499804583378136	157112
157.212	50	239	0	0	mushroom	1040	239	0	stimuli\mushroom\mushroom_12n.jpg	11	-1	0	0	mushroom_12n.jpg	0	0.0	0	211.31948966765802	211.36947085754903	0.049981189891696	157212
157.312	50	240	0	0	calamari	239	240	0	stimuli\calamari\calamari_12s.jpg	11	-1	0	0	calamari_12s.jpg	0	0.0	0	211.41949447058101	211.46947663603402	0.0499821654520929	157312
157.412	50	241	0	0	loincloth	944	241	0	stimuli\loincloth\loincloth_05s.jpg	4	-1	0	0	loincloth_05s.jpg	0	0.0	0	211.51949659176202	211.56947778165298	0.049981189891696	157412
157.512	50	242	0	0	rubber_band	1337	242	0	stimuli\rubber_band\rubber_band_07s.jpg	6	-1	0	0	rubber_band_07s.jpg	0	0.0	0	211.61950578354302	211.669479415286	0.0499736317433417	157512
157.612	50	243	0	0	yoke	1849	243	0	stimuli\yoke\yoke_09s.jpg	8	-1	0	0	yoke_09s.jpg	0	0.0	0	211.71949839592	211.76948421820998	0.0499858222901821	157612
157.712	50	244	0	0	arm	36	244	0	stimuli\arm\arm_12s.jpg	11	-1	0	0	arm_12s.jpg	0	0.0	0	211.819506856147	211.869484632742	0.049977776594460004	157712
157.812	50	245	0	0	lamb_chop	890	245	0	stimuli\lamb_chop\lamb_chop_04s.jpg	3	-1	0	0	lamb_chop_04s.jpg	0	0.0	0	211.91950556403	211.96948577882702	0.0499802147969604	157812
157.912	50	246	0	0	toast	1665	246	0	stimuli\toast\toast_12s.jpg	11	-1	0	0	toast_12s.jpg	0	0.0	0	212.019509147853	212.06949497060901	0.0499858227558434	157912
158.012	50	247	0	0	oatmeal	1069	247	0	stimuli\oatmeal\oatmeal_12s.jpg	11	-1	0	0	oatmeal_12s.jpg	0	0.0	0	212.11951492633702	212.16949660377603	0.0499816774390638	158012
158.112	50	248	0	0	stove1	1563	248	0	stimuli\stove1\stove1_08s.jpg	7	-1	0	0	stove1_08s.jpg	0	0.0	0	212.219518022612	212.269499212503	0.049981189891696	158112
158.212	50	249	0	0	blackberry	135	249	0	stimuli\blackberry\blackberry_08s.jpg	7	-1	0	0	blackberry_08s.jpg	0	0.0	0	212.319515998941	212.369503040332	0.0499870413914323	158212
158.312	50	250	0	0	switch	1600	250	0	stimuli\switch\switch_04s.jpg	3	-1	0	0	switch_04s.jpg	0	0.0	0	212.41951738856702	212.46949857892503	0.0499811903573573	158312
158.412	50	251	0	0	fingerprint	589	251	0	stimuli\fingerprint\fingerprint_07s.jpg	6	-1	0	0	fingerprint_07s.jpg	0	0.0	0	212.519521703944	212.569502894301	0.0499811903573573	158412
158.512	50	252	0	0	sifter	1443	252	0	stimuli\sifter\sifter_02s.jpg	1	-1	0	0	sifter_02s.jpg	0	0.0	0	212.61952796997502	212.669504771475	0.0499768014997244	158512
158.612	50	253	0	0	minivan	1003	253	0	stimuli\minivan\minivan_05s.jpg	4	-1	0	0	minivan_05s.jpg	0	0.0	0	212.719529603608	212.769511281047	0.0499816774390638	158612
158.712	50	254	0	0	mousepad	1028	254	0	stimuli\mousepad\mousepad_06s.jpg	5	-1	0	0	mousepad_06s.jpg	0	0.0	0	212.819529042579	212.869511939585	0.0499828970059752	158712
158.812	50	255	0	0	van	1752	255	0	stimuli\van\van_12s.jpg	11	-1	0	0	van_12s.jpg	0	0.0	0	212.919531407766	212.96951162256303	0.0499802147969604	158812
158.912	50	256	0	0	steering_wheel	1546	256	0	stimuli\steering_wheel\steering_wheel_02s.jpg	1	-1	0	0	steering_wheel_02s.jpg	0	0.0	0	213.019535723142	213.069518863689	0.0499831405468285	158912
159.012	50	257	0	0	dolphin	502	257	0	stimuli\dolphin\dolphin_07s.jpg	6	-1	0	0	dolphin_07s.jpg	0	0.0	0	213.11953979497798	213.169520740863	0.0499809458851814	159012
159.112	50	258	0	0	guillotine	721	258	0	stimuli\guillotine\guillotine_12s.jpg	11	-1	0	0	guillotine_12s.jpg	0	0.0	0	213.219545329455	213.269500919152	0.0499555896967649	159112
159.212	50	259	0	0	glasses	678	259	0	stimuli\glasses\glasses_08s.jpg	7	-1	0	1	glasses_08s.jpg	0	0.0	0	213.319545743521	213.36952595878398	0.0499802152626216	159212
159.312	50	260	0	0	christmas_tree	341	260	0	stimuli\christmas_tree\christmas_tree_09s.jpg	8	-1	0	0	christmas_tree_09s.jpg	0	0.0	0	213.4195466456	213.46952881105202	0.0499821654520929	159312
159.412	50	261	0	0	loveseat	947	261	0	stimuli\loveseat\loveseat_06s.jpg	5	-1	0	0	loveseat_06s.jpg	0	0.0	0	213.51951707154498	213.569531907327	0.0500148357823491	159412
159.512	50	262	0	0	baby	46	262	0	stimuli\baby\baby_08s.jpg	7	-1	0	0	baby_08s.jpg	0	0.0	0	213.619556251913	213.66953646671	0.0499802147969604	159512
159.612	50	263	0	0	plum	1203	263	0	stimuli\plum\plum_09s.jpg	8	-1	0	0	plum_09s.jpg	1	0.44191470462828897	1	213.71955544734402	213.769535906147	0.0499804588034749	159612
159.712	50	264	0	0	trailer	1697	264	0	stimuli\trailer\trailer_05s.jpg	4	-1	0	0	trailer_05s.jpg	0	0.0	0	213.819568295963	213.869539002422	0.0499707064591348	159712
159.812	50	265	0	0	scalpel	1374	265	0	stimuli\scalpel\scalpel_10s.jpg	9	-1	0	0	scalpel_10s.jpg	0	0.0	0	213.919562615454	213.96954648755502	0.0499838721007109	159812
159.912	50	266	0	0	lock	940	266	0	stimuli\lock\lock_02s.jpg	1	-1	0	0	lock_02s.jpg	0	0.0	0	214.019565224182	214.06954714562698	0.0499819214455783	159912
160.012	50	267	0	0	log	943	267	0	stimuli\log\log_08s.jpg	7	-1	0	0	log_08s.jpg	0	0.0	0	214.119565638714	214.16954975435502	0.0499841156415641	160012
160.112	50	268	0	0	eyedropper	566	268	0	stimuli\eyedropper\eyedropper_06s.jpg	5	-1	0	0	eyedropper_06s.jpg	0	0.0	0	214.21956873498902	214.26954797469102	0.0499792397022247	160112
160.212	50	269	0	0	rhinoceros	1306	269	0	stimuli\rhinoceros\rhinoceros_02s.jpg	1	-1	0	0	rhinoceros_02s.jpg	0	0.0	0	214.31957402546	214.36955619091202	0.0499821654520929	160212
160.312	50	270	0	0	paper_towel	1115	270	0	stimuli\paper_towel\paper_towel_05s.jpg	4	-1	0	0	paper_towel_05s.jpg	0	0.0	0	214.41957273334302	214.46955441124697	0.0499816779047251	160312
160.412	50	271	0	0	sequin	1404	271	0	stimuli\sequin\sequin_05s.jpg	4	-1	0	0	sequin_05s.jpg	0	0.0	0	214.519577292725	214.56955799507	0.0499807023443282	160412
160.512	50	272	0	0	toga	1669	272	0	stimuli\toga\toga_04s.jpg	3	-1	0	0	toga_04s.jpg	0	0.0	0	214.61957600060902	214.66955816559502	0.0499821649864316	160512
160.612	50	273	0	0	shawl	1411	273	0	stimuli\shawl\shawl_04s.jpg	3	-1	0	0	shawl_04s.jpg	0	0.0	0	214.719583729282	214.769562724978	0.0499789956957102	160612
160.712	50	274	0	0	wrap	1837	274	0	stimuli\wrap\wrap_10s.jpg	9	-1	0	0	wrap_10s.jpg	0	0.0	0	214.819583168253	214.869567284361	0.0499841161072254	160712
160.812	50	275	0	0	penlight	1147	275	0	stimuli\penlight\penlight_01b.jpg	0	-1	0	0	penlight_01b.jpg	0	0.0	0	214.919593823142	214.969567942433	0.0499741192907095	160812
160.912	50	276	0	0	collar	387	276	0	stimuli\collar\collar_06s.jpg	5	-1	0	0	collar_06s.jpg	0	0.0	0	215.019589117263	215.069570063613	0.0499809463508427	160912
161.012	50	277	0	0	screwdriver	1391	277	0	stimuli\screwdriver\screwdriver_06s.jpg	5	-1	0	0	screwdriver_06s.jpg	0	0.0	0	215.119590994902	215.169575842097	0.0499848471954465	161012
161.112	50	278	0	0	filter	587	278	0	stimuli\filter\filter_03s.jpg	2	-1	0	0	filter_03s.jpg	0	0.0	0	215.21959969867	215.269577963278	0.0499782646074891	161112
161.212	50	279	0	0	wrench	1841	279	0	stimuli\wrench\wrench_01b.jpg	0	-1	0	0	wrench_01b.jpg	0	0.0	0	215.319604258053	215.36957813380297	0.0499738757498562	161212
161.312	50	280	0	0	earplug	539	280	0	stimuli\earplug\earplug_02s.jpg	1	-1	0	0	earplug_02s.jpg	0	0.0	0	215.419598821085	215.469578548335	0.0499797272495925	161312
161.412	50	281	0	0	pantyhose	1110	281	0	stimuli\pantyhose\pantyhose_08s.jpg	7	-1	0	0	pantyhose_08s.jpg	0	0.0	0	215.519603136461	215.56958286371102	0.0499797272495925	161412
161.512	50	282	0	0	meat_grinder	988	282	0	stimuli\meat_grinder\meat_grinder_10s.jpg	9	-1	0	0	meat_grinder_10s.jpg	0	0.0	0	215.619603794534	215.66958669154	0.0499828970059752	161512
161.612	50	283	0	0	wax	1795	283	0	stimuli\wax\wax_07s.jpg	6	-1	0	0	wax_07s.jpg	0	0.0	0	215.719608841464	215.76959149446301	0.0499826529994607	161612
161.712	50	284	0	0	blind	140	284	0	stimuli\blind\blind_04s.jpg	3	-1	0	0	blind_04s.jpg	0	0.0	0	215.81961291329898	215.869595078751	0.0499821654520929	161712
161.812	50	285	0	0	snow	1479	285	0	stimuli\snow\snow_09s.jpg	8	-1	0	0	snow_09s.jpg	0	0.0	0	215.91961162118199	215.969593542628	0.0499819214455783	161812
161.912	50	286	0	0	buoy	223	286	0	stimuli\buoy\buoy_10s.jpg	9	-1	0	0	buoy_10s.jpg	0	0.0	0	216.019615205005	216.06959590734903	0.0499807023443282	161912
162.012	50	287	0	0	nut	1066	287	0	stimuli\nut\nut_08s.jpg	7	-1	0	0	nut_08s.jpg	0	0.0	0	216.119617813732	216.169597784989	0.0499799712561071	162012
162.112	50	288	0	0	ski	1452	288	0	stimuli\ski\ski_12s.jpg	11	-1	0	0	ski_12s.jpg	0	0.0	0	216.21962066646702	216.26960600120898	0.0499853347428143	162112
162.212	50	289	0	0	pogo_stick	1208	289	0	stimuli\pogo_stick\pogo_stick_10s.jpg	9	-1	0	0	pogo_stick_10s.jpg	0	0.0	0	216.319623031188	216.369607878383	0.0499848471954465	162212
162.312	50	290	0	0	porcupine	1226	290	0	stimuli\porcupine\porcupine_07s.jpg	6	-1	0	0	porcupine_07s.jpg	0	0.0	0	216.419633685611	216.46961024356997	0.0499765579588711	162312
162.412	50	291	0	0	marshmallow	977	291	0	stimuli\marshmallow\marshmallow_07s.jpg	6	-1	0	0	marshmallow_07s.jpg	0	0.0	0	216.519632149953	216.569610901643	0.0499787516891956	162412
162.512	50	292	0	0	palette	1100	292	0	stimuli\palette\palette_07s.jpg	6	-1	0	0	palette_07s.jpg	0	0.0	0	216.619635489769	216.66961107263302	0.0499755828641355	162512
162.612	50	293	0	0	warthog	1781	293	0	stimuli\warthog\warthog_07s.jpg	6	-1	0	0	warthog_07s.jpg	0	0.0	0	216.71962078847	216.76959027536202	0.0499694868922234	162612
162.712	50	294	0	0	hammer	741	294	0	stimuli\hammer\hammer_11n.jpg	10	-1	0	0	hammer_11n.jpg	0	0.0	0	216.81962559139401	216.869607756846	0.0499821654520929	162712
162.812	50	295	0	0	wax_paper	1796	295	0	stimuli\wax_paper\wax_paper_11s.jpg	10	-1	0	0	wax_paper_11s.jpg	0	0.0	0	216.91962332371602	216.969606952276	0.0499836285598576	162812
162.912	50	296	0	0	fox	638	296	0	stimuli\fox\fox_04s.jpg	3	-1	0	0	fox_04s.jpg	0	0.0	0	217.019627639558	217.06961370538897	0.0499860658310354	162912
163.012	50	297	0	0	jeep	843	297	0	stimuli\jeep\jeep_02s.jpg	1	-1	0	0	jeep_02s.jpg	0	0.0	0	217.11963049182702	217.16961216973098	0.0499816779047251	163012
163.112	50	298	0	0	seaplane	1398	298	0	stimuli\seaplane\seaplane_02s.jpg	1	-1	0	0	seaplane_02s.jpg	0	0.0	0	217.219637489412	217.269616728649	0.0499792392365634	163112
163.212	50	299	0	0	costume	419	299	0	stimuli\costume\costume_08s.jpg	7	-1	0	0	costume_08s.jpg	0	0.0	0	217.319639122579	217.369618118741	0.0499789961613715	163212
163.312	50	300	0	0	soup	1499	300	0	stimuli\soup\soup_03s.jpg	2	-1	0	0	soup_03s.jpg	0	0.0	0	217.419636855368	217.46962170256302	0.0499848471954465	163312
163.412	50	301	0	0	record	1295	301	0	stimuli\record\record_02s.jpg	1	-1	0	0	record_02s.jpg	0	0.0	0	217.519639464095	217.56962236063598	0.04998289654031401	163412
163.512	50	302	0	0	bracelet1	187	302	0	stimuli\bracelet1\bracelet1_09s.jpg	8	-1	0	0	bracelet1_09s.jpg	0	0.0	0	217.619646217674	217.669628870673	0.0499826529994607	163512
163.612	50	303	0	0	buckle	210	303	0	stimuli\buckle\buckle_12s.jpg	11	-1	0	0	buckle_12s.jpg	0	0.0	0	217.71965150814498	217.76962733455002	0.0499758264049888	163612
163.712	50	304	0	0	yak	1845	304	0	stimuli\yak\yak_04s.jpg	3	-1	0	0	yak_04s.jpg	0	0.0	0	217.81963973213	217.869617265183	0.0499775330536067	163712
163.812	50	305	0	0	foam	624	305	0	stimuli\foam\foam_05s.jpg	4	-1	0	0	foam_05s.jpg	0	0.0	0	217.919654531404	217.969620849006	0.0499663176015019	163812
163.912	50	306	0	0	ink	829	306	0	stimuli\ink\ink_04s.jpg	3	-1	0	0	ink_04s.jpg	0	0.0	0	218.01965714013198	218.06962540838902	0.0499682682566345	163912
164.012	50	307	0	0	glue	681	307	0	stimuli\glue\glue_02s.jpg	1	-1	0	0	glue_02s.jpg	0	0.0	0	218.11964853387298	218.16962728602797	0.0499787521548569	164012
164.112	50	308	0	0	pan	1103	308	0	stimuli\pan\pan_01b.jpg	0	-1	0	0	pan_01b.jpg	0	0.0	0	218.219650655054	218.269631601404	0.0499809463508427	164112
183.096	50	309	0	0	hairpin	737	0	1	stimuli\hairpin\hairpin_10s.jpg	9	-1	1	0	hairpin_10s.jpg	0	0.0	0	237.203496813308	237.253473614808	0.0499768014997244	183096
183.196	50	310	0	0	bunkbed	222	1	1	stimuli\bunkbed\bunkbed_10s.jpg	9	-1	1	0	bunkbed_10s.jpg	0	0.0	0	237.30349576473202	237.353476223536	0.0499804588034749	183196
183.296	50	311	0	0	braid	190	2	1	stimuli\braid\braid_02s.jpg	1	-1	1	0	braid_02s.jpg	0	0.0	0	237.40349739836498	237.453478832263	0.0499814338982105	183296
183.396	50	312	0	0	turban	1730	3	1	stimuli\turban\turban_10s.jpg	9	-1	1	0	turban_10s.jpg	0	0.0	0	237.503500738647	237.553481440991	0.0499807023443282	183396
183.496	50	313	0	0	sprinkler	1523	4	1	stimuli\sprinkler\sprinkler_09s.jpg	8	-1	1	0	sprinkler_09s.jpg	0	0.0	0	237.60350310336798	237.65348209906398	0.0499789956957102	183496
183.596	50	314	0	0	kilt	872	5	1	stimuli\kilt\kilt_12s.jpg	11	-1	1	0	kilt_12s.jpg	0	0.0	0	237.703507418744	237.753490559291	0.0499831405468285	183596
183.696	50	315	0	0	hairspray	738	6	1	stimuli\hairspray\hairspray_09s.jpg	8	-1	1	0	hairspray_09s.jpg	0	0.0	0	237.803507345729	237.85348926717398	0.0499819214455783	183696
183.796	50	316	0	0	bean	102	7	1	stimuli\bean\bean_10s.jpg	9	-1	1	0	bean_10s.jpg	0	0.0	0	237.90350995445598	237.953494801652	0.0499848471954465	183796
183.896	50	317	0	0	grinder	716	8	1	stimuli\grinder\grinder_12s.jpg	11	-1	1	0	grinder_12s.jpg	0	0.0	0	238.00351890223098	238.05349570373102	0.0499768014997244	183896
183.996	50	318	0	0	place_mat	1193	9	1	stimuli\place_mat\place_mat_06s.jpg	5	-1	1	0	place_mat_06s.jpg	0	0.0	0	238.103520048317	238.15352903259898	0.0500089842826128	183996
184.096	50	319	0	0	beetle	115	10	1	stimuli\beetle\beetle_01b.jpg	0	-1	1	0	beetle_01b.jpg	0	0.0	0	238.20354508748298	238.253531885333	0.049986797850579	184096
184.196	50	320	0	0	hot-water_bottle	802	11	1	stimuli\hot-water_bottle\hot-water_bottle_02s.jpg	1	-1	1	0	hot-water_bottle_02s.jpg	0	0.0	0	238.303546477109	238.35351157560902	0.0499650985002518	184196
184.296	50	321	0	0	red_carpet	1298	12	1	stimuli\red_carpet\red_carpet_03s.jpg	2	-1	1	0	red_carpet_03s.jpg	0	0.0	0	238.40355249913398	238.453534664586	0.0499821654520929	184296
184.396	50	322	0	0	eggbeater	548	13	1	stimuli\eggbeater\eggbeater_06s.jpg	5	-1	1	0	eggbeater_06s.jpg	0	0.0	0	238.503551694565	238.553518012166	0.0499663176015019	184396
184.496	50	323	0	0	drill	520	14	1	stimuli\drill\drill_10s.jpg	9	-1	1	0	drill_10s.jpg	0	0.0	0	238.603556253947	238.653521839995	0.0499655860476196	184496
184.596	50	324	0	0	crane	431	15	1	stimuli\crane\crane_05s.jpg	4	-1	1	0	crane_05s.jpg	0	0.0	0	238.703561788425	238.753523230087	0.0499614416621625	184596
184.696	50	325	0	0	fire_pit	593	16	1	stimuli\fire_pit\fire_pit_04s.jpg	3	-1	1	0	fire_pit_04s.jpg	0	0.0	0	238.80356171540902	238.853542417753	0.0499807023443282	184696
184.796	50	326	0	0	crab	428	17	1	stimuli\crab\crab_08s.jpg	7	-1	1	0	crab_08s.jpg	0	0.0	0	238.903563105036	238.95353015419101	0.0499670491553843	184796
184.896	50	327	0	0	macaroni	952	18	1	stimuli\macaroni\macaroni_11s.jpg	10	-1	1	0	macaroni_11s.jpg	0	0.0	0	239.003564738203	239.053543490358	0.0499787521548569	184896
184.996	50	328	0	0	sandbox	1354	19	1	stimuli\sandbox\sandbox_07s.jpg	6	-1	1	0	sandbox_07s.jpg	0	0.0	0	239.10356685938302	239.15354512399102	0.0499782646074891	184996
185.096	50	329	0	0	flatiron	613	20	1	stimuli\flatiron\flatiron_12s.jpg	11	-1	1	0	flatiron_12s.jpg	0	0.0	0	239.203565323725	239.25355212111	0.0499867973849177	185096
185.196	50	330	0	0	leg	911	21	1	stimuli\leg\leg_05s.jpg	4	-1	1	0	leg_05s.jpg	0	0.0	0	239.30357085820302	239.35355156054698	0.0499807023443282	185196
185.296	50	331	0	0	laundry_basket	902	22	1	stimuli\laundry_basket\laundry_basket_05s.jpg	4	-1	1	0	laundry_basket_05s.jpg	0	0.0	0	239.403574198019	239.453554656822	0.0499804588034749	185296
185.396	50	332	0	0	fur_coat	650	23	1	stimuli\fur_coat\fur_coat_01b.jpg	0	-1	1	0	fur_coat_01b.jpg	0	0.0	0	239.503577294759	239.55355945974603	0.0499821649864316	185396
185.496	50	333	0	0	scoop	1381	24	1	stimuli\scoop\scoop_11s.jpg	10	-1	1	0	scoop_11s.jpg	0	0.0	0	239.60357746528499	239.653559630737	0.0499821654520929	185496
185.596	50	334	0	0	beehive	112	25	1	stimuli\beehive\beehive_01b.jpg	0	-1	1	0	beehive_01b.jpg	0	0.0	0	239.70358104910702	239.753560776357	0.0499797272495925	185596
185.696	50	335	0	0	chessboard	318	26	1	stimuli\chessboard\chessboard_09s.jpg	8	-1	1	0	chessboard_09s.jpg	0	0.0	0	239.803584876936	239.85356362909098	0.0499787521548569	185696
185.796	50	336	0	0	pistachio	1188	27	1	stimuli\pistachio\pistachio_03s.jpg	2	-1	1	0	pistachio_03s.jpg	0	0.0	0	239.903587242123	239.953570138663	0.04998289654031401	185796
185.896	50	337	0	0	mat	982	28	1	stimuli\mat\mat_05s.jpg	4	-1	1	0	mat_05s.jpg	0	0.0	0	240.003596921451	240.053570553195	0.0499736317433417	185896
185.996	50	338	0	0	workbench	1835	29	1	stimuli\workbench\workbench_11s.jpg	10	-1	1	0	workbench_11s.jpg	0	0.0	0	240.103594653774	240.153579988517	0.0499853347428143	185996
186.096	50	339	0	0	bagpipe	56	30	1	stimuli\bagpipe\bagpipe_09s.jpg	8	-1	1	0	bagpipe_09s.jpg	0	0.0	0	240.2035960434	240.25357601465697	0.0499799712561071	186096
186.196	50	340	0	0	kebab	865	31	1	stimuli\kebab\kebab_10n.jpg	9	-1	1	0	kebab_10n.jpg	0	0.0	0	240.303599627689	240.35357764828998	0.0499780206009746	186196
186.296	50	341	0	0	lipstick	936	32	1	stimuli\lipstick\lipstick_03s.jpg	2	-1	1	0	lipstick_03s.jpg	0	0.0	0	240.40359906666	240.453581963666	0.0499828970059752	186296
186.396	50	342	0	0	notepad	1065	33	1	stimuli\notepad\notepad_09s.jpg	8	-1	1	0	notepad_09s.jpg	0	0.0	0	240.503603870049	240.553584572393	0.0499807023443282	186396
186.496	50	343	0	0	lanyard	896	34	1	stimuli\lanyard\lanyard_08s.jpg	7	-1	1	0	lanyard_08s.jpg	0	0.0	0	240.60361281782397	240.65358596202003	0.0499731441959739	186496
186.596	50	344	0	0	puppet	1257	35	1	stimuli\puppet\puppet_10s.jpg	9	-1	1	0	puppet_10s.jpg	0	0.0	0	240.70361030660598	240.75359100895	0.0499807023443282	186596
186.696	50	345	0	0	yarn	1846	36	1	stimuli\yarn\yarn_11s.jpg	10	-1	1	0	yarn_11s.jpg	0	0.0	0	240.80361267132702	240.853590691928	0.0499780206009746	186696
186.796	50	346	0	0	fishhook	602	37	1	stimuli\fishhook\fishhook_05s.jpg	4	-1	1	0	fishhook_05s.jpg	0	0.0	0	240.90361430496003	240.95359427575002	0.0499799707904458	186796
186.896	50	347	0	0	worm	1836	38	1	stimuli\worm\worm_12s.jpg	11	-1	1	0	worm_12s.jpg	0	0.0	0	241.003616182134	241.053595665842	0.0499794837087393	186896
186.996	50	348	0	0	tank2	1621	39	1	stimuli\tank2\tank2_06s.jpg	5	-1	1	0	tank2_06s.jpg	0	0.0	0	241.10362000996201	241.153579744976	0.0499597350135446	186996
187.096	50	349	0	0	candle	253	40	1	stimuli\candle\candle_04n.jpg	3	-1	1	0	candle_04n.jpg	0	0.0	0	241.203629933298	241.253604052588	0.0499741192907095	187096
187.196	50	350	0	0	cilantro	347	41	1	stimuli\cilantro\cilantro_07s.jpg	6	-1	1	0	cilantro_07s.jpg	0	0.0	0	241.303623764776	241.353603735566	0.0499799707904458	187196
187.296	50	351	0	0	keg	866	42	1	stimuli\keg\keg_12s.jpg	11	-1	1	0	keg_12s.jpg	0	0.0	0	241.403595165815	241.453606832307	0.0500116664916277	187296
187.396	50	352	0	0	golf_cart	689	43	1	stimuli\golf_cart\golf_cart_05s.jpg	4	-1	1	0	golf_cart_05s.jpg	0	0.0	0	241.503628250677	241.553609441034	0.0499811903573573	187396
187.496	50	353	0	0	moose	1018	44	1	stimuli\moose\moose_12s.jpg	11	-1	1	0	moose_12s.jpg	0	0.0	0	241.60363183496497	241.653623021208	0.0499911862425506	187496
187.596	50	354	0	0	stapler	1539	45	1	stimuli\stapler\stapler_06s.jpg	5	-1	1	0	stapler_06s.jpg	0	0.0	0	241.703639319632	241.753615633585	0.0499763139523566	187596
187.696	50	355	0	0	thumb	1653	46	1	stimuli\thumb\thumb_01b.jpg	0	-1	1	0	thumb_01b.jpg	0	0.0	0	241.80363656487302	241.85361872986	0.0499821649864316	187696
187.796	50	356	0	0	mousse	1030	47	1	stimuli\mousse\mousse_11s.jpg	10	-1	1	0	mousse_11s.jpg	0	0.0	0	241.903638929594	241.953622070141	0.0499831405468285	187796
187.896	50	357	0	0	pickle	1167	48	1	stimuli\pickle\pickle_11s.jpg	10	-1	1	0	pickle_11s.jpg	0	0.0	0	242.00364617072003	242.05362126557202	0.0499750948511064	187896
187.996	50	358	0	0	napkin_ring	1051	49	1	stimuli\napkin_ring\napkin_ring_05s.jpg	4	-1	1	0	napkin_ring_05s.jpg	0	0.0	0	242.103647804353	242.153627775609	0.0499799712561071	187996
188.096	50	359	0	0	ear	538	50	1	stimuli\ear\ear_03s.jpg	2	-1	1	0	ear_03s.jpg	0	0.0	0	242.20365090062802	242.253630871885	0.0499799712561071	188096
188.196	50	360	0	0	french_fries	641	51	1	stimuli\french_fries\french_fries_03s.jpg	2	-1	1	1	french_fries_03s.jpg	0	0.0	0	242.30365180270698	242.353628604207	0.0499768014997244	188196
188.296	50	361	0	0	pedal	1136	52	1	stimuli\pedal\pedal_10s.jpg	9	-1	1	0	pedal_10s.jpg	0	0.0	0	242.403657093644	242.45363267604301	0.0499755823984742	188296
188.396	50	362	0	0	backdrop	47	53	1	stimuli\backdrop\backdrop_10s.jpg	9	-1	1	0	backdrop_10s.jpg	0	0.0	0	242.50365506997298	242.55363674741199	0.0499816774390638	188396
188.496	50	363	0	0	puddle	1247	54	1	stimuli\puddle\puddle_11s.jpg	10	-1	1	0	puddle_11s.jpg	0	0.0	0	242.603657434694	242.653641794343	0.0499843596480787	188496
188.596	50	364	0	0	school_bus	1378	55	1	stimuli\school_bus\school_bus_09s.jpg	8	-1	1	0	school_bus_09s.jpg	1	0.40681442664936207	1	242.703658824321	242.75364464707698	0.0499858227558434	188596
188.696	50	365	0	0	helmet	776	56	1	stimuli\helmet\helmet_02s.jpg	1	-1	1	0	helmet_02s.jpg	0	0.0	0	242.803669722751	242.85364920646	0.0499794837087393	188696
188.796	50	366	0	0	polygraph	1217	57	1	stimuli\polygraph\polygraph_03s.jpg	2	-1	1	0	polygraph_03s.jpg	0	0.0	0	242.90367013728198	242.95364913297797	0.0499789956957102	188796
188.896	50	367	0	0	pocket_watch	1206	58	1	stimuli\pocket_watch\pocket_watch_03s.jpg	2	-1	1	0	pocket_watch_03s.jpg	0	0.0	0	243.00366860115898	243.05364954751	0.0499809463508427	188896
188.996	50	368	0	0	shopping_basket	1427	59	1	stimuli\shopping_basket\shopping_basket_07s.jpg	6	-1	1	0	shopping_basket_07s.jpg	0	0.0	0	243.103672672994	243.153650693595	0.0499780206009746	188996
189.096	50	369	0	0	pom-pom	1218	60	1	stimuli\pom-pom\pom-pom_08s.jpg	7	-1	1	0	pom-pom_08s.jpg	0	0.0	0	243.20367308752603	243.25365671562	0.0499836280941963	189096
189.196	50	370	0	0	shears	1412	61	1	stimuli\shears\shears_02s.jpg	1	-1	1	0	shears_02s.jpg	0	0.0	0	243.303676671349	243.35367517173302	0.0499985003843904	189196
189.296	50	371	0	0	railing	1277	62	1	stimuli\railing\railing_11s.jpg	10	-1	1	0	railing_11s.jpg	0	0.0	0	243.403680986725	243.45366168906898	0.0499807023443282	189296
189.396	50	372	0	0	lollipop	945	63	1	stimuli\lollipop\lollipop_06n.jpg	5	-1	1	0	lollipop_06n.jpg	0	0.0	0	243.50368505856002	243.553660396952	0.0499753383919597	189396
189.496	50	373	0	0	quill	1263	64	1	stimuli\quill\quill_01b.jpg	0	-1	1	0	quill_01b.jpg	0	0.0	0	243.60368474153802	243.65366398124002	0.0499792397022247	189496
189.596	50	374	0	0	pencil_sharpener	1143	65	1	stimuli\pencil_sharpener\pencil_sharpener_09n.jpg	8	-1	1	0	pencil_sharpener_09n.jpg	0	0.0	0	243.703690276016	243.753671953455	0.0499816774390638	189596
189.696	50	375	0	0	coal	367	66	1	stimuli\coal\coal_04s.jpg	3	-1	1	0	coal_04s.jpg	0	0.0	0	243.80369239719602	243.853669442236	0.0499770450405777	189696
189.796	50	376	0	0	seal	1397	67	1	stimuli\seal\seal_12s.jpg	11	-1	1	0	seal_12s.jpg	0	0.0	0	243.903693299275	243.953672782518	0.04997948324307799	189796
189.896	50	377	0	0	shredder	1437	68	1	stimuli\shredder\shredder_05s.jpg	4	-1	1	0	shredder_05s.jpg	0	0.0	0	244.003695663996	244.05367782944802	0.0499821654520929	189896
189.996	50	378	0	0	heater	772	69	1	stimuli\heater\heater_03s.jpg	2	-1	1	0	heater_03s.jpg	0	0.0	0	244.103699248284	244.153682632372	0.0499833840876818	189996
190.096	50	379	0	0	bat1	87	70	1	stimuli\bat1\bat1_08s.jpg	7	-1	1	0	bat1_08s.jpg	0	0.0	0	244.20370307611302	244.25367280701198	0.0499697308987379	190096
190.196	50	380	0	0	tool	1676	71	1	stimuli\tool\tool_05s.jpg	4	-1	1	0	tool_05s.jpg	0	0.0	0	244.30369081255	244.35368955647598	0.0499987439252436	190196
190.296	50	381	0	0	punch2	1255	72	1	stimuli\punch2\punch2_12s.jpg	11	-1	1	0	punch2_12s.jpg	0	0.0	0	244.403710731771	244.45368948346	0.0499787516891956	190296
190.396	50	382	0	0	smoke_alarm	1473	73	1	stimuli\smoke_alarm\smoke_alarm_04s.jpg	3	-1	1	0	smoke_alarm_04s.jpg	0	0.0	0	244.50371163384997	244.553698431235	0.0499867973849177	190396
190.496	50	383	0	0	wolf	1831	74	1	stimuli\wolf\wolf_02s.jpg	1	-1	1	0	wolf_02s.jpg	0	0.0	0	244.603715461679	244.653697626665	0.0499821649864316	190496
190.596	50	384	0	0	bolt	159	75	1	stimuli\bolt\bolt_01b.jpg	0	-1	1	0	bolt_01b.jpg	0	0.0	0	244.703718070406	244.75368609465698	0.0499680242501199	190596
190.696	50	385	0	0	megaphone	993	76	1	stimuli\megaphone\megaphone_12s.jpg	11	-1	1	0	megaphone_12s.jpg	0	0.0	0	244.803720679134	244.85368772829	0.0499670491553843	190696
190.796	50	386	0	0	javelin	841	77	1	stimuli\javelin\javelin_08s.jpg	7	-1	1	0	javelin_08s.jpg	0	0.0	0	244.90372353140302	244.95370569685502	0.0499821654520929	190796
190.896	50	387	0	0	bike	123	78	1	stimuli\bike\bike_04s.jpg	3	-1	1	0	bike_04s.jpg	0	0.0	0	245.00370980519799	245.05372561607498	0.0500158108770847	190896
190.996	50	388	0	0	cummerbund	459	79	1	stimuli\cummerbund\cummerbund_06s.jpg	5	-1	1	0	cummerbund_06s.jpg	0	0.0	0	245.10372704220902	245.153707013465	0.0499799712561071	190996
191.096	50	389	0	0	snowboard	1481	80	1	stimuli\snowboard\snowboard_12s.jpg	11	-1	1	0	snowboard_12s.jpg	0	0.0	0	245.20373013895	245.25370937818698	0.0499792392365634	191096
191.196	50	390	0	0	closet	360	81	1	stimuli\closet\closet_07s.jpg	6	-1	1	0	closet_07s.jpg	0	0.0	0	245.303731772117	245.35371271846802	0.0499809463508427	191196
191.296	50	391	0	0	taillight	1617	82	1	stimuli\taillight\taillight_05s.jpg	4	-1	1	0	taillight_05s.jpg	0	0.0	0	245.40373633150003	245.453719716053	0.0499833845533431	191296
191.396	50	392	0	0	hydrant	814	83	1	stimuli\hydrant\hydrant_11s.jpg	10	-1	1	0	hydrant_11s.jpg	0	0.0	0	245.503736746032	245.553718911484	0.0499821654520929	191396
191.496	50	393	0	0	aircraft_carrier	9	84	1	stimuli\aircraft_carrier\aircraft_carrier_04s.jpg	3	-1	1	0	aircraft_carrier_04s.jpg	0	0.0	0	245.603739598766	245.653720057104	0.0499804583378136	191496
191.596	50	394	0	0	rain_gauge	1278	85	1	stimuli\rain_gauge\rain_gauge_03s.jpg	2	-1	1	0	rain_gauge_03s.jpg	0	0.0	0	245.703744889237	245.753720471635	0.0499755823984742	191596
191.696	50	395	0	0	cat	284	86	1	stimuli\cat\cat_12s.jpg	11	-1	1	0	cat_12s.jpg	0	0.0	0	245.80374847305902	245.85372551856602	0.0499770455062389	191696
191.796	50	396	0	0	blueberry	149	87	1	stimuli\blueberry\blueberry_05s.jpg	4	-1	1	0	blueberry_05s.jpg	0	0.0	0	245.903749863151	245.953730077948	0.0499802147969604	191796
191.896	50	397	0	0	subway	1578	88	1	stimuli\subway\subway_02s.jpg	1	-1	1	0	subway_02s.jpg	0	0.0	0	246.00374978967002	246.053730736021	0.0499809463508427	191896
191.996	50	398	0	0	hopscotch	796	89	1	stimuli\hopscotch\hopscotch_02s.jpg	1	-1	1	0	hopscotch_02s.jpg	0	0.0	0	246.10375142330298	246.15373480785598	0.0499833845533431	191996
192.096	50	399	0	0	spinach	1515	90	1	stimuli\spinach\spinach_05s.jpg	4	-1	1	0	spinach_05s.jpg	0	0.0	0	246.203757201787	246.25373278418598	0.0499755823984742	192096
192.196	50	400	0	0	home_plate	787	91	1	stimuli\home_plate\home_plate_08s.jpg	7	-1	1	0	home_plate_08s.jpg	0	0.0	0	246.303761760704	246.35374148795398	0.0499797272495925	192196
192.296	50	401	0	0	moss	1022	92	1	stimuli\moss\moss_12s.jpg	11	-1	1	0	moss_12s.jpg	0	0.0	0	246.403789969627	246.453742146492	0.0499521768651903	192296
192.396	50	402	0	0	lingerie	932	93	1	stimuli\lingerie\lingerie_05s.jpg	4	-1	1	0	lingerie_05s.jpg	0	0.0	0	246.50376380886902	246.55374378012502	0.0499799712561071	192396
192.496	50	403	0	0	ravioli	1289	94	1	stimuli\ravioli\ravioli_11s.jpg	10	-1	1	0	ravioli_11s.jpg	0	0.0	0	246.603764466941	246.653746632393	0.0499821654520929	192496
192.596	50	404	0	0	headlamp	764	95	1	stimuli\headlamp\headlamp_03s.jpg	2	-1	1	0	headlamp_03s.jpg	0	0.0	0	246.703768051229	246.753747534472	0.04997948324307799	192596
192.696	50	405	0	0	torpedo	1684	96	1	stimuli\torpedo\torpedo_09s.jpg	8	-1	1	0	torpedo_09s.jpg	0	0.0	0	246.803771391511	246.853751849849	0.0499804583378136	192696
192.796	50	406	0	0	tongs	1674	97	1	stimuli\tongs\tongs_02s.jpg	1	-1	1	0	tongs_02s.jpg	0	0.0	0	246.903773268685	246.95375397102902	0.0499807023443282	192796
192.896	50	407	0	0	ice_pack	820	98	1	stimuli\ice_pack\ice_pack_08s.jpg	7	-1	1	0	ice_pack_08s.jpg	0	0.0	0	247.00377977825698	247.053757555317	0.0499777770601213	192896
192.996	50	408	0	0	spark_plug	1506	99	1	stimuli\spark_plug\spark_plug_07s.jpg	6	-1	1	0	spark_plug_07s.jpg	0	0.0	0	247.103782143444	247.153760651592	0.0499785081483424	192996
193.096	50	409	0	0	bow3	176	100	1	stimuli\bow3\bow3_08s.jpg	7	-1	1	0	bow3_08s.jpg	0	0.0	0	247.20378207042802	247.25376179767798	0.0499797272495925	193096
193.196	50	410	0	0	kale	860	101	1	stimuli\kale\kale_06s.jpg	5	-1	1	0	kale_06s.jpg	0	0.0	0	247.303785410244	247.353764649946	0.0499792397022247	193196
193.296	50	411	0	0	stingray	1556	102	1	stimuli\stingray\stingray_07s.jpg	6	-1	1	0	stingray_07s.jpg	0	0.0	0	247.40378972562002	247.45376799022802	0.0499782646074891	193296
193.396	50	412	0	0	payphone	1127	103	1	stimuli\payphone\payphone_05s.jpg	4	-1	1	0	payphone_05s.jpg	0	0.0	0	247.503787458409	247.553771330509	0.0499838721007109	193396
193.496	50	413	0	0	buggy	213	104	1	stimuli\buggy\buggy_12s.jpg	11	-1	1	0	buggy_12s.jpg	0	0.0	0	247.60379860037898	247.65377418277802	0.0499755823984742	193496
193.596	50	414	0	0	quilt	1264	105	1	stimuli\quilt\quilt_05s.jpg	4	-1	1	0	quilt_05s.jpg	0	0.0	0	247.703802915756	247.75377606041698	0.0499731446616352	193596
193.696	50	415	0	0	tile	1660	106	1	stimuli\tile\tile_12s.jpg	11	-1	1	0	tile_12s.jpg	0	0.0	0	247.80379699124	247.85377842513802	0.0499814338982105	193696
193.796	50	416	0	0	sauce	1362	107	1	stimuli\sauce\sauce_03s.jpg	2	-1	1	0	sauce_03s.jpg	0	0.0	0	247.90380008751498	247.953784935176	0.0499848476611078	193796
193.896	50	417	0	0	mosquito_net	1021	108	1	stimuli\mosquito_net\mosquito_net_08s.jpg	7	-1	1	0	mosquito_net_08s.jpg	0	0.0	0	248.003802452702	248.053786568344	0.0499841156415641	193896
193.996	50	418	0	0	marijuana	974	109	1	stimuli\marijuana\marijuana_12s.jpg	11	-1	1	0	marijuana_12s.jpg	0	0.0	0	248.10380603652402	248.15378600778098	0.0499799712561071	193996
194.096	50	419	0	0	laser_pointer	899	110	1	stimuli\laser_pointer\laser_pointer_06s.jpg	5	-1	1	0	laser_pointer_06s.jpg	0	0.0	0	248.203808645252	248.253787153866	0.0499785086140037	194096
194.196	50	420	0	0	poodle	1221	111	1	stimuli\poodle\poodle_05s.jpg	4	-1	1	0	poodle_05s.jpg	0	0.0	0	248.303810766432	248.35379146924197	0.0499807028099895	194196
194.296	50	421	0	0	brake	191	112	1	stimuli\brake\brake_10s.jpg	9	-1	1	0	brake_10s.jpg	0	0.0	0	248.403811912518	248.45379407797	0.0499821654520929	194296
194.396	50	422	0	0	vest	1759	113	1	stimuli\vest\vest_01b.jpg	0	-1	1	0	vest_01b.jpg	0	0.0	0	248.503815740347	248.55379961244802	0.0499838721007109	194396
194.496	50	423	0	0	okra	1074	114	1	stimuli\okra\okra_12s.jpg	11	-1	1	0	okra_12s.jpg	0	0.0	0	248.60382151836498	248.653801245615	0.0499797272495925	194496
194.596	50	424	0	0	muffin	1035	115	1	stimuli\muffin\muffin_10n.jpg	9	-1	1	0	muffin_10n.jpg	0	0.0	0	248.70382778439702	248.753801416606	0.049973632209003	194596
194.696	50	425	0	0	gem	670	116	1	stimuli\gem\gem_04s.jpg	3	-1	1	0	gem_04s.jpg	0	0.0	0	248.80382429808398	248.85380475688703	0.0499804588034749	194696
194.796	50	426	0	0	lab_coat	885	117	1	stimuli\lab_coat\lab_coat_07s.jpg	6	-1	1	0	lab_coat_07s.jpg	0	0.0	0	248.903826175258	248.953812241554	0.0499860662966967	194796
194.896	50	427	0	0	cookie_sheet	402	118	1	stimuli\cookie_sheet\cookie_sheet_10s.jpg	9	-1	1	0	cookie_sheet_10s.jpg	0	0.0	0	249.003828296438	249.05381046188998	0.0499821654520929	194896
194.996	50	428	0	0	fudge	647	119	1	stimuli\fudge\fudge_06s.jpg	5	-1	1	0	fudge_06s.jpg	0	0.0	0	249.103833830915	249.153815021273	0.0499811903573573	194996
195.096	50	429	0	0	humvee	813	120	1	stimuli\humvee\humvee_01b.jpg	0	-1	1	0	humvee_01b.jpg	0	0.0	0	249.20383595209597	249.25381567934502	0.0499797272495925	195096
195.196	50	430	0	0	turnstile	1734	121	1	stimuli\turnstile\turnstile_09s.jpg	8	-1	1	0	turnstile_09s.jpg	0	0.0	0	249.30383807327598	249.353818288073	0.0499802147969604	195196
195.296	50	431	0	0	card	271	122	1	stimuli\card\card_06s.jpg	5	-1	1	0	card_06s.jpg	0	0.0	0	249.40383995045	249.45382065326	0.0499807028099895	195296
195.396	50	432	0	0	microphone	998	123	1	stimuli\microphone\microphone_09s.jpg	8	-1	1	0	microphone_09s.jpg	0	0.0	0	249.50384255917703	249.553827406373	0.0499848471954465	195396
195.496	50	433	0	0	go-kart	682	124	1	stimuli\go-kart\go-kart_03s.jpg	2	-1	1	0	go-kart_03s.jpg	0	0.0	0	249.603843705263	249.653824895155	0.049981189891696	195496
195.596	50	434	0	0	root	1331	125	1	stimuli\root\root_09s.jpg	8	-1	1	0	root_09s.jpg	0	0.0	0	249.703852897044	249.753828722984	0.0499758259393275	195596
195.696	50	435	0	0	roof_rack	1329	126	1	stimuli\roof_rack\roof_rack_02s.jpg	1	-1	1	0	roof_rack_02s.jpg	0	0.0	0	249.803852580022	249.85383474547402	0.0499821654520929	195696
195.796	50	436	0	0	bull	214	127	1	stimuli\bull\bull_05s.jpg	4	-1	1	0	bull_05s.jpg	0	0.0	0	249.90385421365502	249.95383369689802	0.04997948324307799	195796
195.896	50	437	0	0	water_heater	1791	128	1	stimuli\water_heater\water_heater_02s.jpg	1	-1	1	0	water_heater_02s.jpg	0	0.0	0	250.003878521267	250.053835818078	0.0499572968110442	195896
195.996	50	438	0	0	uniform	1747	129	1	stimuli\uniform\uniform_10s.jpg	9	-1	1	0	uniform_10s.jpg	0	0.0	0	250.10386138130002	250.153845984954	0.0499846036545932	195996
196.096	50	439	0	0	bracket	189	130	1	stimuli\bracket\bracket_01b.jpg	0	-1	1	0	bracket_01b.jpg	0	0.0	0	250.203862770926	250.253843717277	0.0499809463508427	196096
196.196	50	440	0	0	volleyball	1767	131	1	stimuli\volleyball\volleyball_06s.jpg	5	-1	1	0	volleyball_06s.jpg	0	0.0	0	250.30386952450502	250.35384535091	0.0499758264049888	196196
196.296	50	441	0	0	balloon	60	132	1	stimuli\balloon\balloon_01b.jpg	0	-1	1	0	balloon_01b.jpg	0	0.0	0	250.403869207948	250.453847716097	0.0499785081483424	196296
196.396	50	442	0	0	hovercraft	808	133	1	stimuli\hovercraft\hovercraft_01b.jpg	0	-1	1	0	hovercraft_01b.jpg	0	0.0	0	250.50387157267002	250.553847399075	0.0499758264049888	196396
196.496	50	443	0	0	raincoat	1279	134	1	stimuli\raincoat\raincoat_04s.jpg	3	-1	1	0	raincoat_04s.jpg	0	0.0	0	250.60387247474898	250.653858297039	0.0499858222901821	196496
196.596	50	444	0	0	bookmark	166	135	1	stimuli\bookmark\bookmark_04s.jpg	3	-1	1	0	bookmark_04s.jpg	0	0.0	0	250.703876546584	250.753835793585	0.0499592470005155	196596
196.696	50	445	0	0	potato	1231	136	1	stimuli\potato\potato_03n.jpg	2	-1	1	0	potato_03n.jpg	0	0.0	0	250.80385623686	250.85383596411	0.0499797272495925	196696
196.796	50	446	0	0	slime	1465	137	1	stimuli\slime\slime_06s.jpg	5	-1	1	0	slime_06s.jpg	0	0.0	0	250.903859089594	250.953841498587	0.0499824089929461	196796
196.896	50	447	0	0	nest	1056	138	1	stimuli\nest\nest_02s.jpg	1	-1	1	0	nest_02s.jpg	0	0.0	0	251.003862185869	251.05384166957802	0.0499794837087393	196896
196.996	50	448	0	0	trowel	1719	139	1	stimuli\trowel\trowel_05s.jpg	4	-1	1	0	trowel_05s.jpg	0	0.0	0	251.103865770157	251.15384500986	0.0499792397022247	196996
197.096	50	449	0	0	squirrel	1529	140	1	stimuli\squirrel\squirrel_02s.jpg	1	-1	1	0	squirrel_02s.jpg	0	0.0	0	251.203864965588	251.253846643027	0.0499816774390638	197096
197.196	50	450	0	0	mullet	1039	141	1	stimuli\mullet\mullet_05s.jpg	4	-1	1	0	mullet_05s.jpg	0	0.0	0	251.30386928096402	251.35384973976798	0.0499804588034749	197196
197.296	50	451	0	0	spatula	1508	142	1	stimuli\spatula\spatula_05s.jpg	4	-1	1	0	spatula_05s.jpg	0	0.0	0	251.403871158138	251.453852104489	0.0499809463508427	197296
197.396	50	452	0	0	food_processor	627	143	1	stimuli\food_processor\food_processor_06s.jpg	5	-1	1	0	food_processor_06s.jpg	0	0.0	0	251.503874742426	251.553855932318	0.049981189891696	197396
197.496	50	453	0	0	motherboard	1024	144	1	stimuli\motherboard\motherboard_12s.jpg	11	-1	1	0	motherboard_12s.jpg	0	0.0	0	251.6038766196	251.653858541045	0.0499819214455783	197496
197.596	50	454	0	0	printer	1240	145	1	stimuli\printer\printer_12s.jpg	11	-1	1	0	printer_12s.jpg	0	0.0	0	251.703881422523	251.753860662226	0.0499792397022247	197596
197.696	50	455	0	0	cabbage	232	146	1	stimuli\cabbage\cabbage_01b.jpg	0	-1	1	0	cabbage_01b.jpg	0	0.0	0	251.80388427525799	251.85387546150002	0.0499911862425506	197696
197.796	50	456	0	0	pepper_mill	1151	147	1	stimuli\pepper_mill\pepper_mill_04s.jpg	3	-1	1	0	pepper_mill_04s.jpg	0	0.0	0	251.903886883985	251.953864904586	0.0499780206009746	197796
197.896	50	457	0	0	binoculars	127	148	1	stimuli\binoculars\binoculars_04s.jpg	3	-1	1	0	binoculars_04s.jpg	0	0.0	0	252.003887298517	252.05387043906399	0.0499831405468285	197896
197.996	50	458	0	0	stuffing	1575	149	1	stimuli\stuffing\stuffing_02s.jpg	1	-1	1	0	stuffing_02s.jpg	0	0.0	0	252.10389478318402	252.153871097136	0.0499763139523566	197996
198.096	50	459	0	0	clothespin	363	150	1	stimuli\clothespin\clothespin_04s.jpg	3	-1	1	0	clothespin_04s.jpg	0	0.0	0	252.20389349106702	252.253872486763	0.0499789956957102	198096
198.196	50	460	0	0	microscope	999	151	1	stimuli\microscope\microscope_12s.jpg	11	-1	1	0	microscope_12s.jpg	0	0.0	0	252.303895612247	252.353875827044	0.0499802147969604	198196
198.296	50	461	0	0	diving_board	494	152	1	stimuli\diving_board\diving_board_11s.jpg	10	-1	1	0	diving_board_11s.jpg	0	0.0	0	252.40390041517102	252.45387892331902	0.0499785081483424	198296
198.396	50	462	0	0	inhaler	828	153	1	stimuli\inhaler\inhaler_02s.jpg	1	-1	1	0	inhaler_02s.jpg	0	0.0	0	252.50391448335702	252.553881288506	0.0499668051488698	198396
198.496	50	463	0	0	pulley	1250	154	1	stimuli\pulley\pulley_02s.jpg	1	-1	1	0	pulley_02s.jpg	0	0.0	0	252.60390343843	252.65388316567996	0.0499797272495925	198496
198.596	50	464	0	0	map	970	155	1	stimuli\map\map_02s.jpg	1	-1	1	0	map_02s.jpg	0	0.0	0	252.703905559611	252.753886505961	0.0499809463508427	198596
198.696	50	465	0	0	aloe	14	156	1	stimuli\aloe\aloe_07s.jpg	6	-1	1	0	aloe_07s.jpg	0	0.0	0	252.803909874987	252.853892040439	0.0499821654520929	198696
198.796	50	466	0	0	snowsuit	1486	157	1	stimuli\snowsuit\snowsuit_07s.jpg	6	-1	1	0	snowsuit_07s.jpg	0	0.0	0	252.903913702816	252.95389147987598	0.0499777770601213	198796
198.896	50	467	0	0	ice_cream	818	158	1	stimuli\ice_cream\ice_cream_03s.jpg	2	-1	1	0	ice_cream_03s.jpg	0	0.0	0	253.00393727934	253.053894576151	0.0499572968110442	198896
198.996	50	468	0	0	soda	1490	159	1	stimuli\soda\soda_10s.jpg	9	-1	1	0	soda_10s.jpg	0	0.0	0	253.103930623271	253.153897428885	0.04996680561453099	198996
199.096	50	469	0	0	dessert	481	160	1	stimuli\dessert\dessert_02s.jpg	1	-1	1	0	dessert_02s.jpg	0	0.0	0	253.203917628154	253.253900281154	0.0499826529994607	199096
199.196	50	470	0	0	raisin	1280	161	1	stimuli\raisin\raisin_08s.jpg	7	-1	1	0	raisin_08s.jpg	0	0.0	0	253.30394315533297	253.35393117182002	0.0499880164861679	199196
199.296	50	471	0	0	pecan	1135	162	1	stimuli\pecan\pecan_11s.jpg	10	-1	1	0	pecan_11s.jpg	0	0.0	0	253.403924552258	253.453911106568	0.0499865543097258	199296
199.396	50	472	0	0	wick	1815	163	1	stimuli\wick\wick_10s.jpg	9	-1	1	0	wick_10s.jpg	0	0.0	0	253.503926917445	253.55390664469502	0.0499797272495925	199396
199.496	50	473	0	0	bulletproof_vest	218	164	1	stimuli\bulletproof_vest\bulletproof_vest_06s.jpg	5	-1	1	0	bulletproof_vest_06s.jpg	0	0.0	0	253.60393098927997	253.653910716064	0.0499797267839313	199496
199.596	50	474	0	0	gondola	691	165	1	stimuli\gondola\gondola_09s.jpg	8	-1	1	0	gondola_09s.jpg	0	0.0	0	253.703930915799	253.753916738555	0.0499858227558434	199596
199.696	50	475	0	0	birdhouse	131	166	1	stimuli\birdhouse\birdhouse_01b.jpg	0	-1	1	0	birdhouse_01b.jpg	0	0.0	0	253.80393474362802	253.85392885562	0.0499941119924188	199696
199.796	50	476	0	0	chick	321	167	1	stimuli\chick\chick_05s.jpg	4	-1	1	0	chick_05s.jpg	0	0.0	0	253.903936377261	253.953917811159	0.0499814338982105	199796
199.896	50	477	0	0	stove2	1564	168	1	stimuli\stove2\stove2_02s.jpg	1	-1	1	0	stove2_02s.jpg	0	0.0	0	254.00394191173802	254.053925296292	0.0499833845533431	199896
199.996	50	478	0	0	bullet	216	169	1	stimuli\bullet\bullet_01s.jpg	0	-1	1	0	bullet_01s.jpg	0	0.0	0	254.103948908858	254.15392497927002	0.0499760704115033	199996
200.096	50	479	0	0	tulip	1726	170	1	stimuli\tulip\tulip_09s.jpg	8	-1	1	0	tulip_09s.jpg	0	0.0	0	254.203946885653	254.25392783153802	0.0499809458851814	200096
200.196	50	480	0	0	coconut	375	171	1	stimuli\coconut\coconut_07s.jpg	6	-1	1	0	coconut_07s.jpg	0	0.0	0	254.303951932117	254.353930440266	0.0499785081483424	200196
200.296	50	481	0	0	bonnet	163	172	1	stimuli\bonnet\bonnet_01s.jpg	0	-1	1	0	bonnet_01s.jpg	0	0.0	0	254.403951615561	254.453932561446	0.0499809458851814	200296
200.396	50	482	0	0	cd_player	290	173	1	stimuli\cd_player\cd_player_04s.jpg	3	-1	1	0	cd_player_04s.jpg	0	0.0	0	254.50395276118098	254.553934195079	0.0499814338982105	200396
200.496	50	483	0	0	necklace	1054	174	1	stimuli\necklace\necklace_04n.jpg	3	-1	1	0	necklace_04n.jpg	0	0.0	0	254.603957808111	254.653936803807	0.0499789956957102	200496
200.596	50	484	0	0	cigarette	344	175	1	stimuli\cigarette\cigarette_10s.jpg	9	-1	1	0	cigarette_10s.jpg	0	0.0	0	254.70395797863603	254.75394160672997	0.0499836280941963	200596
200.696	50	485	0	0	chocolate	338	176	1	stimuli\chocolate\chocolate_05s.jpg	4	-1	1	0	chocolate_05s.jpg	0	0.0	0	254.803962050471	254.853963476606	0.0500014261342585	200696
200.796	50	486	0	0	bologna	158	177	1	stimuli\bologna\bologna_11s.jpg	10	-1	1	0	bologna_11s.jpg	0	0.0	0	254.90396539075297	254.95394536154302	0.0499799707904458	200796
200.896	50	487	0	0	sheep	1414	178	1	stimuli\sheep\sheep_07s.jpg	6	-1	1	0	sheep_07s.jpg	0	0.0	0	255.003965804819	255.053948457818	0.0499826529994607	200896
200.996	50	488	0	0	wedding_cake	1800	179	1	stimuli\wedding_cake\wedding_cake_10s.jpg	9	-1	1	0	wedding_cake_10s.jpg	0	0.0	0	255.103968657553	255.15395204210702	0.0499833845533431	200996
201.096	50	489	0	0	scraper	1387	180	1	stimuli\scraper\scraper_04s.jpg	3	-1	1	0	scraper_04s.jpg	0	0.0	0	255.203972972929	255.25395391927998	0.0499809463508427	201096
201.196	50	490	0	0	hotplate	806	181	1	stimuli\hotplate\hotplate_08s.jpg	7	-1	1	0	hotplate_08s.jpg	0	0.0	0	255.30397704476502	255.35395823465697	0.049981189891696	201196
201.296	50	491	0	0	grenade	713	182	1	stimuli\grenade\grenade_03s.jpg	2	-1	1	0	grenade_03s.jpg	0	0.0	0	255.40397843439098	255.453958649188	0.0499802147969604	201296
201.396	50	492	0	0	camper	249	183	1	stimuli\camper\camper_01b.jpg	0	-1	1	0	camper_01b.jpg	0	0.0	0	255.503980799112	255.55396540276698	0.0499846036545932	201396
201.496	50	493	0	0	jewel	849	184	1	stimuli\jewel\jewel_08s.jpg	7	-1	1	0	jewel_08s.jpg	0	0.0	0	255.60398438340098	255.65396337909598	0.0499789956957102	201496
201.596	50	494	0	0	fishing_pole	603	185	1	stimuli\fishing_pole\fishing_pole_04s.jpg	3	-1	1	0	fishing_pole_04s.jpg	0	0.0	0	255.703986260574	255.753966962919	0.0499807023443282	201596
201.696	50	495	0	0	pastry	1124	186	1	stimuli\pastry\pastry_07s.jpg	6	-1	1	0	pastry_07s.jpg	0	0.0	0	255.80398984486197	255.85398663859797	0.0499967937357724	201696
201.796	50	496	0	0	rifle	1311	187	1	stimuli\rifle\rifle_08s.jpg	7	-1	1	0	rifle_08s.jpg	0	0.0	0	255.903990990482	255.95399802457501	0.0500070340931416	201796
201.896	50	497	0	0	crucifix	449	188	1	stimuli\crucifix\crucifix_06s.jpg	5	-1	1	0	crucifix_06s.jpg	0	0.0	0	256.00399457477	256.053974058013	0.04997948324307799	201896
201.996	50	498	0	0	gravestone	710	189	1	stimuli\gravestone\gravestone_08s.jpg	7	-1	1	0	gravestone_08s.jpg	0	0.0	0	256.103997183498	256.15397837339003	0.049981189891696	201996
202.096	50	499	0	0	boy	184	190	1	stimuli\boy\boy_11s.jpg	10	-1	1	0	boy_11s.jpg	0	0.0	0	256.204001254868	256.253984882962	0.0499836280941963	202096
202.196	50	500	0	0	ring	1313	191	1	stimuli\ring\ring_10s.jpg	9	-1	1	0	ring_10s.jpg	0	0.0	0	256.304001181852	256.353983103298	0.0499819214455783	202196
202.296	50	501	0	0	frisbee	643	192	1	stimuli\frisbee\frisbee_03s.jpg	2	-1	1	0	frisbee_03s.jpg	0	0.0	0	256.404005741235	256.453984736931	0.0499789956957102	202296
202.396	50	502	0	0	bubble_wrap	208	193	1	stimuli\bubble_wrap\bubble_wrap_07s.jpg	6	-1	1	0	bubble_wrap_07s.jpg	0	0.0	0	256.504008593503	256.553997829556	0.0499892360530794	202396
202.496	50	503	0	0	barcode	73	194	1	stimuli\barcode\barcode_01b.jpg	0	-1	1	0	barcode_01b.jpg	0	0.0	0	256.60400998312997	256.653996049426	0.0499860662966967	202496
202.596	50	504	0	0	cornbread	413	195	1	stimuli\cornbread\cornbread_09s.jpg	8	-1	1	0	cornbread_09s.jpg	0	0.0	0	256.704023563303	256.753993538208	0.0499699749052525	202596
202.696	50	505	0	0	penguin	1145	196	1	stimuli\penguin\penguin_09s.jpg	8	-1	1	0	penguin_09s.jpg	0	0.0	0	256.80401617614604	256.854000048246	0.0499838721007109	202696
202.796	50	506	0	0	carrot	277	197	1	stimuli\carrot\carrot_04n.jpg	3	-1	1	0	carrot_04n.jpg	0	0.0	0	256.904018297326	256.95399899967003	0.0499807023443282	202796
202.896	50	507	0	0	girl	676	198	1	stimuli\girl\girl_05s.jpg	4	-1	1	0	girl_05s.jpg	0	0.0	0	257.004021881148	257.05400404659997	0.0499821654520929	202896
202.996	50	508	0	0	brace	186	199	1	stimuli\brace\brace_04s.jpg	3	-1	1	0	brace_04s.jpg	0	0.0	0	257.104024489876	257.154005192686	0.0499807028099895	202996
203.096	50	509	0	0	gallows	653	200	1	stimuli\gallows\gallows_03s.jpg	2	-1	1	0	gallows_03s.jpg	0	0.0	0	257.204028074164	257.254006338306	0.0499782641418278	203096
203.196	50	510	0	0	kneepad	878	201	1	stimuli\kneepad\kneepad_07s.jpg	6	-1	1	0	kneepad_07s.jpg	0	0.0	0	257.304029219784	257.35401114122897	0.0499819214455783	203196
203.296	50	511	0	0	mug	1036	202	1	stimuli\mug\mug_09s.jpg	8	-1	1	0	mug_09s.jpg	0	0.0	0	257.404032560065	257.454013749957	0.049981189891696	203296
203.396	50	512	0	0	parachute	1118	203	1	stimuli\parachute\parachute_01b.jpg	0	-1	1	0	parachute_01b.jpg	0	0.0	0	257.50403394969203	257.554016846698	0.0499828970059752	203396
203.496	50	513	0	0	piggy_bank	1172	204	1	stimuli\piggy_bank\piggy_bank_08s.jpg	7	-1	1	0	piggy_bank_08s.jpg	0	0.0	0	257.604038021527	257.654017748777	0.0499797272495925	203496
203.596	50	514	0	0	sweet_potato	1595	205	1	stimuli\sweet_potato\sweet_potato_06s.jpg	5	-1	1	0	sweet_potato_06s.jpg	0	0.0	0	257.704039167147	257.754019869957	0.0499807028099895	203596
203.696	50	515	0	0	nutcracker	1067	206	1	stimuli\nutcracker\nutcracker_09s.jpg	8	-1	1	0	nutcracker_09s.jpg	0	0.0	0	257.804042994976	257.854025404435	0.0499824094586074	203696
203.796	50	516	0	0	velcro	1756	207	1	stimuli\velcro\velcro_03s.jpg	2	-1	1	0	velcro_03s.jpg	0	0.0	0	257.904045116156	257.95402728160803	0.0499821654520929	203796
203.896	50	517	0	0	keyhole	871	208	1	stimuli\keyhole\keyhole_06s.jpg	5	-1	1	0	keyhole_06s.jpg	0	0.0	0	258.004048456438	258.05402769614	0.0499792397022247	203896
203.996	50	518	0	0	sunflower	1584	209	1	stimuli\sunflower\sunflower_03s.jpg	2	-1	1	0	sunflower_03s.jpg	0	0.0	0	258.10405155271303	258.15403420571204	0.0499826529994607	203996
204.096	50	519	0	0	shower_cap	1434	210	1	stimuli\shower_cap\shower_cap_01b.jpg	0	-1	1	0	shower_cap_01b.jpg	0	0.0	0	258.204052942339	258.254034376238	0.0499814338982105	204096
204.196	50	520	0	0	lampshade	893	211	1	stimuli\lampshade\lampshade_10s.jpg	9	-1	1	0	lampshade_10s.jpg	0	0.0	0	258.304055551533	258.35403576633	0.0499802147969604	204196
204.296	50	521	0	0	tape_recorder	1624	212	1	stimuli\tape_recorder\tape_recorder_05s.jpg	4	-1	1	0	tape_recorder_05s.jpg	0	0.0	0	258.404064986855	258.45403861859796	0.0499736317433417	204296
204.396	50	522	0	0	mint	1004	213	1	stimuli\mint\mint_04s.jpg	3	-1	1	0	mint_04s.jpg	0	0.0	0	258.504059549887	258.554041715339	0.0499821654520929	204396
204.496	50	523	0	0	swan	1591	214	1	stimuli\swan\swan_08s.jpg	7	-1	1	0	swan_08s.jpg	0	0.0	0	258.604062402155	258.654045786709	0.0499833845533431	204496
204.596	50	524	0	0	container	398	215	1	stimuli\container\container_08s.jpg	7	-1	1	0	container_08s.jpg	0	0.0	0	258.70406598644297	258.754045713693	0.0499797272495925	204596
204.696	50	525	0	0	gearshift	668	216	1	stimuli\gearshift\gearshift_11n.jpg	10	-1	1	0	gearshift_11n.jpg	0	0.0	0	258.804069082718	258.85405246727197	0.0499833845533431	204696
204.796	50	526	0	0	bead	100	217	1	stimuli\bead\bead_12s.jpg	11	-1	1	0	bead_12s.jpg	0	0.0	0	258.904072423	258.954053612892	0.049981189891696	204796
204.896	50	527	0	0	possum	1228	218	1	stimuli\possum\possum_12s.jpg	11	-1	1	0	possum_12s.jpg	0	0.0	0	259.004077957477	259.054055002984	0.0499770455062389	204896
204.996	50	528	0	0	knee	877	219	1	stimuli\knee\knee_02s.jpg	1	-1	1	0	knee_02s.jpg	0	0.0	0	259.10407715290796	259.15405883034697	0.0499816774390638	204996
205.096	50	529	0	0	bubble	207	220	1	stimuli\bubble\bubble_06n.jpg	5	-1	1	0	bubble_06n.jpg	0	0.0	0	259.204091220628	259.254058025777	0.0499668051488698	205096
205.196	50	530	0	0	rose	1334	221	1	stimuli\rose\rose_02s.jpg	1	-1	1	0	rose_02s.jpg	0	0.0	0	259.304081638809	259.354064291809	0.0499826529994607	205196
205.296	50	531	0	0	stamp1	1535	222	1	stimuli\stamp1\stamp1_01b.jpg	0	-1	1	0	stamp1_01b.jpg	0	0.0	0	259.40408692974603	259.45406470634	0.049977776594460004	205296
205.396	50	532	0	0	candlestick	254	223	1	stimuli\candlestick\candlestick_03s.jpg	2	-1	1	0	candlestick_03s.jpg	0	0.0	0	259.504088075366	259.554069265723	0.0499811903573573	205396
205.496	50	533	0	0	breakfast	197	224	1	stimuli\breakfast\breakfast_11s.jpg	10	-1	1	0	breakfast_11s.jpg	0	0.0	0	259.6040909281	259.654072849546	0.0499819214455783	205496
205.596	50	534	0	0	washing_machine	1784	225	1	stimuli\washing_machine\washing_machine_12s.jpg	11	-1	1	0	washing_machine_12s.jpg	0	0.0	0	259.704092074186	259.75407375162496	0.0499816774390638	205596
205.696	50	535	0	0	lantern	895	226	1	stimuli\lantern\lantern_07s.jpg	6	-1	1	0	lantern_07s.jpg	0	0.0	0	259.804097852204	259.854078311007	0.0499804588034749	205696
205.796	50	536	0	0	bench	120	227	1	stimuli\bench\bench_04s.jpg	3	-1	1	0	bench_04s.jpg	0	0.0	0	259.90409924183	259.954080432188	0.0499811903573573	205796
205.896	50	537	0	0	webcam	1799	228	1	stimuli\webcam\webcam_06s.jpg	5	-1	1	0	webcam_06s.jpg	0	0.0	0	260.004101850558	260.054080846719	0.0499789961613715	205896
205.996	50	538	0	0	coffin	383	229	1	stimuli\coffin\coffin_07s.jpg	6	-1	1	0	coffin_07s.jpg	0	0.0	0	260.10410519084	260.154084674548	0.0499794837087393	205996
206.096	50	539	0	0	jackhammer	837	230	1	stimuli\jackhammer\jackhammer_11s.jpg	10	-1	1	0	jackhammer_11s.jpg	0	0.0	0	260.204106092919	260.254087770823	0.0499816779047251	206096
206.196	50	540	0	0	mailbox	960	231	1	stimuli\mailbox\mailbox_01b.jpg	0	-1	1	0	mailbox_01b.jpg	0	0.0	0	260.304108945653	260.354090867098	0.0499819214455783	206196
206.296	50	541	0	0	noisemaker	1060	232	1	stimuli\noisemaker\noisemaker_03s.jpg	2	-1	1	0	noisemaker_03s.jpg	0	0.0	0	260.404112041928	260.454096645582	0.0499846036545932	206296
206.396	50	542	0	0	marble	972	233	1	stimuli\marble\marble_06s.jpg	5	-1	1	0	marble_06s.jpg	0	0.0	0	260.504114163108	260.554094865452	0.0499807023443282	206396
206.496	50	543	0	0	net	1057	234	1	stimuli\net\net_06s.jpg	5	-1	1	0	net_06s.jpg	0	0.0	0	260.60411725938303	260.654099424835	0.0499821654520929	206496
206.596	50	544	0	0	camcorder	244	235	1	stimuli\camcorder\camcorder_12s.jpg	11	-1	1	0	camcorder_12s.jpg	0	0.0	0	260.704124012962	260.75409935182	0.04997533885762099	206596
206.696	50	545	0	0	dagger	469	236	1	stimuli\dagger\dagger_01b.jpg	0	-1	1	0	dagger_01b.jpg	0	0.0	0	260.804121989291	260.85410439875	0.0499824094586074	206696
206.796	50	546	0	0	train_car	1699	237	1	stimuli\train_car\train_car_08n.jpg	7	-1	1	0	train_car_08n.jpg	0	0.0	0	260.90412581712	260.954106763471	0.0499809463508427	206796
206.896	50	547	0	0	tuxedo	1738	238	1	stimuli\tuxedo\tuxedo_10s.jpg	9	-1	1	0	tuxedo_10s.jpg	0	0.0	0	261.004128669854	261.05411107884703	0.0499824089929461	206896
206.996	50	548	0	0	bag	54	239	1	stimuli\bag\bag_07s.jpg	6	-1	1	0	bag_07s.jpg	0	0.0	0	261.104130303487	261.154110761825	0.0499804583378136	206996
207.096	50	549	0	0	panda	1105	240	1	stimuli\panda\panda_05s.jpg	4	-1	1	0	panda_05s.jpg	0	0.0	0	261.204132912215	261.254115565214	0.0499826529994607	207096
207.196	50	550	0	0	moccasin	1010	241	1	stimuli\moccasin\moccasin_11s.jpg	10	-1	1	0	moccasin_11s.jpg	0	0.0	0	261.304134789389	261.35411573573896	0.0499809463508427	207196
207.296	50	551	0	0	gazelle	666	242	1	stimuli\gazelle\gazelle_07s.jpg	6	-1	1	0	gazelle_07s.jpg	0	0.0	0	261.404139836319	261.454119563568	0.0499797272495925	207296
207.396	50	552	0	0	scale	1371	243	1	stimuli\scale\scale_04s.jpg	3	-1	1	0	scale_04s.jpg	0	0.0	0	261.504140006844	261.55412241630296	0.0499824094586074	207396
207.496	50	553	0	0	chips	335	244	1	stimuli\chips\chips_09s.jpg	8	-1	1	0	chips_09s.jpg	0	0.0	0	261.60414627287497	261.65412502503	0.0499787521548569	207496
207.596	50	554	0	0	fire_hydrant	592	245	1	stimuli\fire_hydrant\fire_hydrant_11s.jpg	10	-1	1	0	fire_hydrant_11s.jpg	0	0.0	0	261.704146443401	261.75412958394696	0.0499831405468285	207596
207.696	50	555	0	0	blowtorch	148	246	1	stimuli\blowtorch\blowtorch_03s.jpg	2	-1	1	0	blowtorch_03s.jpg	0	0.0	0	261.804154416081	261.854132436682	0.0499780206009746	207696
207.796	50	556	0	0	batter	96	247	1	stimuli\batter\batter_01b.jpg	0	-1	1	1	batter_01b.jpg	0	0.0	0	261.904152148869	261.954133826308	0.0499816774390638	207796
207.896	50	557	0	0	wallpaper	1777	248	1	stimuli\wallpaper\wallpaper_12s.jpg	11	-1	1	0	wallpaper_12s.jpg	0	0.0	0	262.00415597623197	262.05413521593397	0.0499792397022247	207896
207.996	50	558	0	0	flashlight	611	249	1	stimuli\flashlight\flashlight_01b.jpg	0	-1	1	0	flashlight_01b.jpg	0	0.0	0	262.104157853872	262.15413928777	0.0499814338982105	207996
208.096	50	559	0	0	bathrobe	90	250	1	stimuli\bathrobe\bathrobe_11s.jpg	10	-1	1	0	bathrobe_11s.jpg	0	0.0	0	262.20416070614	262.254141896497	0.0499811903573573	208096
208.196	50	560	0	0	shuffleboard	1439	251	1	stimuli\shuffleboard\shuffleboard_12s.jpg	11	-1	1	0	shuffleboard_12s.jpg	0	0.0	0	262.304165265523	262.35414353013	0.0499782646074891	208196
208.296	50	561	0	0	alligator	12	252	1	stimuli\alligator\alligator_05s.jpg	4	-1	1	0	alligator_05s.jpg	1	0.551334942225367	1	262.404166167602	262.454145894852	0.0499797272495925	208296
208.396	50	562	0	0	dryer	524	253	1	stimuli\dryer\dryer_01b.jpg	0	-1	1	0	dryer_01b.jpg	0	0.0	0	262.504191694316	262.554177029524	0.0499853352084756	208396
208.496	50	563	0	0	grass	705	254	1	stimuli\grass\grass_08s.jpg	7	-1	1	0	grass_08s.jpg	0	0.0	0	262.604196497705	262.65417232411	0.0499758264049888	208496
208.596	50	564	0	0	compost	393	255	1	stimuli\compost\compost_04s.jpg	3	-1	1	0	compost_04s.jpg	0	0.0	0	262.704172775149	262.754154452588	0.0499816774390638	208596
208.696	50	565	0	0	wafer	1769	256	1	stimuli\wafer\wafer_09s.jpg	8	-1	1	0	wafer_09s.jpg	0	0.0	0	262.804176846519	262.854160231072	0.0499833845533431	208696
208.796	50	566	0	0	crepe	440	257	1	stimuli\crepe\crepe_05s.jpg	4	-1	1	0	crepe_05s.jpg	0	0.0	0	262.904181161895	262.954174542334	0.0499933804385364	208796
208.896	50	567	0	0	toothpick	1681	258	1	stimuli\toothpick\toothpick_10s.jpg	9	-1	1	0	toothpick_10s.jpg	0	0.0	0	263.004180357326	263.054162766319	0.0499824089929461	208896
208.996	50	568	0	0	hatchet	759	259	1	stimuli\hatchet\hatchet_10s.jpg	9	-1	1	0	hatchet_10s.jpg	0	0.0	0	263.10418491670896	263.15416439995204	0.04997948324307799	208996
209.096	50	569	0	0	cardigan	273	260	1	stimuli\cardigan\cardigan_10s.jpg	9	-1	1	0	cardigan_10s.jpg	0	0.0	0	263.204187769443	263.254168471787	0.0499807023443282	209096
209.196	50	570	0	0	cornhusk	414	261	1	stimuli\cornhusk\cornhusk_03s.jpg	2	-1	1	0	cornhusk_03s.jpg	0	0.0	0	263.304189159069	263.35417229961604	0.0499831405468285	209196
209.296	50	571	0	0	lens	916	262	1	stimuli\lens\lens_04s.jpg	3	-1	1	0	lens_04s.jpg	0	0.0	0	263.40419054869596	263.454174908344	0.0499843596480787	209296
209.396	50	572	0	0	quesadilla	1261	263	1	stimuli\quesadilla\quesadilla_08s.jpg	7	-1	1	0	quesadilla_08s.jpg	0	0.0	0	263.504195351619	263.554174347315	0.0499789956957102	209396
209.496	50	573	0	0	banner	70	264	1	stimuli\banner\banner_08s.jpg	7	-1	1	0	banner_08s.jpg	0	0.0	0	263.604197228793	263.654177444056	0.0499802152626216	209496
209.596	50	574	0	0	floss	617	265	1	stimuli\floss\floss_07s.jpg	6	-1	1	0	floss_07s.jpg	0	0.0	0	263.704199837986	263.75418566027696	0.0499858222901821	209596
209.696	50	575	0	0	potpie	1234	266	1	stimuli\potpie\potpie_11s.jpg	10	-1	1	0	potpie_11s.jpg	0	0.0	0	263.804209029302	263.85418363660597	0.0499746073037386	209696
209.796	50	576	0	0	wheelbarrow	1807	267	1	stimuli\wheelbarrow\wheelbarrow_03s.jpg	2	-1	1	0	wheelbarrow_03s.jpg	0	0.0	0	263.904209200293	263.954185270239	0.049976069945842	209796
209.896	50	577	0	0	kayak	863	268	1	stimuli\kayak\kayak_09s.jpg	8	-1	1	0	kayak_09s.jpg	0	0.0	0	264.00420985836496	264.05418934160804	0.04997948324307799	209896
209.996	50	578	0	0	bus	226	269	1	stimuli\bus\bus_04n.jpg	3	-1	1	0	bus_04n.jpg	0	0.0	0	264.104210272897	264.154190731701	0.0499804588034749	209996
210.096	50	579	0	0	tongue	1675	270	1	stimuli\tongue\tongue_09s.jpg	8	-1	1	0	tongue_09s.jpg	0	0.0	0	264.20421361317904	264.25419212132704	0.0499785081483424	210096
210.196	50	580	0	0	juicer2	856	271	1	stimuli\juicer2\juicer2_07s.jpg	6	-1	1	0	juicer2_07s.jpg	0	0.0	0	264.304216465447	264.354196192697	0.0499797272495925	210196
210.296	50	581	0	0	gravy	711	272	1	stimuli\gravy\gravy_11s.jpg	10	-1	1	0	gravy_11s.jpg	0	0.0	0	264.404220049735	264.454200020526	0.0499799707904458	210296
210.396	50	582	0	0	mop	1019	273	1	stimuli\mop\mop_07s.jpg	6	-1	1	0	mop_07s.jpg	0	0.0	0	264.504221926909	264.554204092361	0.0499821654520929	210396
210.496	50	583	0	0	duck	525	274	1	stimuli\duck\duck_07s.jpg	6	-1	1	0	duck_07s.jpg	0	0.0	0	264.604224048089	264.654212796129	0.0499887480400503	210496
210.596	50	584	0	0	baton1	92	275	1	stimuli\baton1\baton1_01s.jpg	0	-1	1	0	baton1_01s.jpg	0	0.0	0	264.70422714436404	264.75420833472197	0.0499811903573573	210596
210.696	50	585	0	0	vise	1765	276	1	stimuli\vise\vise_04s.jpg	3	-1	1	0	vise_04s.jpg	0	0.0	0	264.804230240639	264.854212650098	0.0499824094586074	210696
210.796	50	586	0	0	tomato_sauce	1673	277	1	stimuli\tomato_sauce\tomato_sauce_04s.jpg	3	-1	1	0	tomato_sauce_04s.jpg	0	0.0	0	264.904236019123	264.954210626427	0.0499746073037386	210796
210.896	50	587	0	0	daisy	470	278	1	stimuli\daisy\daisy_01b.jpg	0	-1	1	0	daisy_01b.jpg	0	0.0	0	265.00423545856	265.054214454256	0.0499789956957102	210896
210.996	50	588	0	0	elephant	554	279	1	stimuli\elephant\elephant_05n.jpg	4	-1	1	0	elephant_05n.jpg	0	0.0	0	265.104243674781	265.154217306525	0.0499736317433417	210996
211.096	50	589	0	0	inkwell	830	280	1	stimuli\inkwell\inkwell_12s.jpg	11	-1	1	0	inkwell_12s.jpg	0	0.0	0	265.204240919556	265.254221622366	0.0499807028099895	211096
211.196	50	590	0	0	belt_buckle	119	281	1	stimuli\belt_buckle\belt_buckle_10s.jpg	9	-1	1	0	belt_buckle_10s.jpg	0	0.0	0	265.304258888587	265.35422349954	0.04996461095288401	211196
211.296	50	591	0	0	backpack	49	282	1	stimuli\backpack\backpack_01b.jpg	0	-1	1	0	backpack_01b.jpg	0	0.0	0	265.404244430363	265.454226595815	0.0499821654520929	211296
211.396	50	592	0	0	hotdog	805	283	1	stimuli\hotdog\hotdog_07s.jpg	6	-1	1	0	hotdog_07s.jpg	0	0.0	0	265.504245820455	265.554241882637	0.049996062181890004	211396
211.496	50	593	0	0	combination_lock	390	284	1	stimuli\combination_lock\combination_lock_11s.jpg	10	-1	1	0	combination_lock_11s.jpg	0	0.0	0	265.604251354933	265.65423254482397	0.049981189891696	211496
211.596	50	594	0	0	juice	854	285	1	stimuli\juice\juice_08s.jpg	7	-1	1	0	juice_08s.jpg	0	0.0	0	265.7042529881	265.754234421998	0.0499814338982105	211596
211.696	50	595	0	0	hanger	751	286	1	stimuli\hanger\hanger_02s.jpg	1	-1	1	0	hanger_02s.jpg	0	0.0	0	265.804260473233	265.854241175577	0.0499807023443282	211696
211.796	50	596	0	0	speedboat	1511	287	1	stimuli\speedboat\speedboat_06s.jpg	5	-1	1	0	speedboat_06s.jpg	0	0.0	0	265.90425942465697	265.954240371007	0.0499809463508427	211796
211.896	50	597	0	0	turtleneck	1737	288	1	stimuli\turtleneck\turtleneck_11s.jpg	10	-1	1	0	turtleneck_11s.jpg	0	0.0	0	266.00426252139704	266.05424151709303	0.0499789956957102	211896
211.996	50	598	0	0	grasshopper	706	289	1	stimuli\grasshopper\grasshopper_05s.jpg	4	-1	1	0	grasshopper_05s.jpg	0	0.0	0	266.104263911024	266.154243150726	0.0499792397022247	211996
212.096	50	599	0	0	gopher	694	290	1	stimuli\gopher\gopher_05s.jpg	4	-1	1	0	gopher_05s.jpg	0	0.0	0	266.204285780434	266.254249416292	0.0499636358581483	212096
212.196	50	600	0	0	lava	903	291	1	stimuli\lava\lava_06s.jpg	5	-1	1	0	lava_06s.jpg	0	0.0	0	266.304268884473	266.354252025019	0.0499831405468285	212196
212.296	50	601	0	0	blender	138	292	1	stimuli\blender\blender_04s.jpg	3	-1	1	0	blender_04s.jpg	0	0.0	0	266.404279782902	266.454252439551	0.0499726566486061	212296
212.396	50	602	0	0	bison	134	293	1	stimuli\bison\bison_09s.jpg	8	-1	1	0	bison_09s.jpg	0	0.0	0	266.504275077488	266.55425699893397	0.0499819214455783	212396
212.496	50	603	0	0	mantle	969	294	1	stimuli\mantle\mantle_06s.jpg	5	-1	1	0	mantle_06s.jpg	0	0.0	0	266.604279148858	266.654262289405	0.0499831405468285	212496
212.596	50	604	0	0	tostada	1688	295	1	stimuli\tostada\tostada_10s.jpg	9	-1	1	0	tostada_10s.jpg	0	0.0	0	266.70427931984904	266.75426002219297	0.0499807023443282	212596
212.696	50	605	0	0	sock	1489	296	1	stimuli\sock\sock_09s.jpg	8	-1	1	0	sock_09s.jpg	0	0.0	0	266.804284366313	266.854287743103	0.05000337678939099	212696
212.796	50	606	0	0	chinchilla	332	297	1	stimuli\chinchilla\chinchilla_01b.jpg	0	-1	1	0	chinchilla_01b.jpg	0	0.0	0	266.90428697550703	266.954264995642	0.0499780201353133	212796
212.896	50	607	0	0	vacuum	1750	298	1	stimuli\vacuum\vacuum_01s.jpg	0	-1	1	0	vacuum_01s.jpg	0	0.0	0	267.00428885267996	267.054275650531	0.049986797850579	212896
212.996	50	608	0	0	curtain	465	299	1	stimuli\curtain\curtain_09s.jpg	8	-1	1	0	curtain_09s.jpg	0	0.0	0	267.104290486313	267.15427313931303	0.0499826529994607	212996
