onset	duration	eventnumber	blocksequencenumber	isteststim	object	objectnumber	presentationnumber	sequencenumber	stim	stimnumber	teststimnumber	withinsequencenumber	istarget	stimname	response	rt	correct	time_stimon	time_stimoff	stimdur	sample
13.868	50	0	0	0	lobster	939	0	0	stimuli\lobster\lobster_02n.jpg	1	-1	0	0	lobster_02n.jpg	1	0.0	0	91.089367882465	91.1393600439769	0.0499921615119092	13868
13.968	50	1	0	0	pipe1	1186	1	0	stimuli\pipe1\pipe1_06s.jpg	5	-1	0	0	pipe1_06s.jpg	0	0.0	0	91.1893856074312	91.2393599708448	0.0499743634136394	13968
14.068	50	2	0	0	weasel	1797	2	0	stimuli\weasel\weasel_09s.jpg	8	-1	0	0	weasel_09s.jpg	0	0.0	0	91.28940333233909	91.3393779395847	0.0499746072455309	14068
14.168	50	3	0	0	oilcan	1073	3	0	stimuli\oilcan\oilcan_11s.jpg	10	-1	0	0	oilcan_11s.jpg	0	0.0	0	91.38938277919078	91.43935543595579	0.0499726567650214	14168
14.268	50	4	0	0	banana_split	65	4	0	stimuli\banana_split\banana_split_12s.jpg	11	-1	0	0	banana_split_12s.jpg	0	0.0	0	91.4893736851518	91.5393575571361	0.0499838719842955	14268
14.368	50	5	0	0	dolphin	502	5	0	stimuli\dolphin\dolphin_11n.jpg	10	-1	0	0	dolphin_11n.jpg	0	0.0	0	91.58937848819191	91.6399945581798	0.0506160699878819	14368
14.468	50	6	0	0	ferret	578	6	0	stimuli\ferret\ferret_04s.jpg	3	-1	0	0	ferret_04s.jpg	0	0.0	0	91.6893823159626	91.73936350608709	0.0499811901245266	14468
14.568	50	7	0	0	satellite_dish	1361	7	0	stimuli\satellite_dish\satellite_dish_11s.jpg	10	-1	0	0	satellite_dish_11s.jpg	0	0.0	0	91.7893844371429	91.8393778176978	0.0499933805549517	14568
14.668	50	8	0	0	revolver	1304	8	0	stimuli\revolver\revolver_02s.jpg	1	-1	0	0	revolver_02s.jpg	0	0.0	0	91.88938485161631	91.939370917913	0.0499860662966967	14668
14.768	50	9	0	0	satellite	1360	9	0	stimuli\satellite\satellite_01b.jpg	0	-1	0	0	satellite_01b.jpg	0	0.0	0	91.9893998946645	92.03937011328529	0.0499702186207287	14768
14.868	50	10	0	0	couch	422	10	0	stimuli\couch\couch_02s.jpg	1	-1	0	0	couch_02s.jpg	0	0.0	0	92.0893954329076	92.1393758915947	0.0499804586870596	14868
14.968	50	11	0	0	canoe	262	11	0	stimuli\canoe\canoe_10s.jpg	9	-1	0	0	canoe_10s.jpg	0	0.0	0	92.18939389695879	92.2393775251112	0.04998362815240401	14968
15.068	50	12	0	0	stomach	1560	12	0	stimuli\stomach\stomach_05s.jpg	4	-1	0	0	stomach_05s.jpg	0	0.0	0	92.28939894377251	92.3393811091082	0.0499821653356776	15068
15.168	50	13	0	0	grenade	713	13	0	stimuli\grenade\grenade_02s.jpg	1	-1	0	0	grenade_02s.jpg	0	0.0	0	92.3893988706404	92.4393807921442	0.049981921503786	15168
15.268	50	14	0	0	eyeliner	567	14	0	stimuli\eyeliner\eyeliner_11s.jpg	10	-1	0	0	eyeliner_11s.jpg	0	0.0	0	92.4894022108056	92.5393834009301	0.0499811901245266	15268
15.368	50	15	0	0	wedge	1801	15	0	stimuli\wedge\wedge_09s.jpg	8	-1	0	0	wedge_09s.jpg	0	0.0	0	92.5894055510289	92.6393864973215	0.0499809462926351	15368
15.468	50	16	0	0	springboard	1522	16	0	stimuli\springboard\springboard_08s.jpg	7	-1	0	0	springboard_08s.jpg	0	0.0	0	92.6894062093343	92.73939056892411	0.04998435958987099	15468
15.568	50	17	0	0	laundry_basket	902	17	0	stimuli\laundry_basket\laundry_basket_02s.jpg	1	-1	0	0	laundry_basket_02s.jpg	0	0.0	0	92.7894110123743	92.83939317771	0.0499821653356776	15568
15.668	50	18	0	0	toolbox	1677	18	0	stimuli\toolbox\toolbox_05s.jpg	4	-1	0	0	toolbox_05s.jpg	0	0.0	0	92.8894128896645	92.9393957864377	0.0499828967731446	15668
15.768	50	19	0	0	balance_beam	58	19	0	stimuli\balance_beam\balance_beam_01b.jpg	0	-1	0	0	balance_beam_01b.jpg	0	0.0	0	92.98941427940741	93.03939961426659	0.0499853348592296	15768
15.868	50	20	0	0	orangutan	1080	20	0	stimuli\orangutan\orangutan_10s.jpg	9	-1	0	0	orangutan_10s.jpg	0	0.0	0	93.0894188386155	93.1394019792206	0.0499831406050362	15868
15.968	50	21	0	0	spatula	1508	21	0	stimuli\spatula\spatula_06s.jpg	5	-1	0	0	spatula_06s.jpg	0	0.0	0	93.189421935007	93.23940483178009	0.0499828967731446	15968
16.068	50	22	0	0	cap	265	22	0	stimuli\cap\cap_06s.jpg	5	-1	0	0	cap_06s.jpg	0	0.0	0	93.28942308091791	93.3394062215229	0.0499831406050362	16068
16.168	50	23	0	0	berry	121	23	0	stimuli\berry\berry_12s.jpg	11	-1	0	0	berry_12s.jpg	0	0.0	0	93.3894261773094	93.4394078550395	0.0499816777301021	16168
16.268	50	24	0	0	ring	1313	24	0	stimuli\ring\ring_06s.jpg	5	-1	0	0	ring_06s.jpg	0	0.0	0	93.48943024891199	93.5394114390365	0.0499811901245266	16268
16.368	50	25	0	0	cornbread	413	25	0	stimuli\cornbread\cornbread_12s.jpg	11	-1	0	0	cornbread_12s.jpg	0	0.0	0	93.58943602722141	93.6394133163849	0.0499772891635075	16368
16.468	50	26	0	0	rack1	1268	26	0	stimuli\rack1\rack1_05s.jpg	4	-1	0	0	rack1_05s.jpg	0	0.0	0	93.6894349788199	93.739415437507	0.0499804586870596	16468
16.568	50	27	0	0	siren	1448	27	0	stimuli\siren\siren_08s.jpg	7	-1	0	0	siren_08s.jpg	0	0.0	0	93.7894366123364	93.8394338938524	0.0499972815159708	16568
16.668	50	28	0	0	log	943	28	0	stimuli\log\log_02s.jpg	1	-1	0	0	log_02s.jpg	0	0.0	0	93.88944044016529	93.93942211789542	0.0499816777301021	16668
16.768	50	29	0	0	twig	1740	29	0	stimuli\twig\twig_01b.jpg	0	-1	0	0	twig_01b.jpg	0	0.0	0	93.9894447555998	94.03942740854109	0.049982652941253	16768
16.868	50	30	0	0	bed	108	30	0	stimuli\bed\bed_10s.jpg	9	-1	0	0	bed_10s.jpg	0	0.0	0	94.0894434634247	94.1394287982839	0.0499853348592296	16868
16.968	50	31	0	0	clothes	361	31	0	stimuli\clothes\clothes_07s.jpg	6	-1	0	0	clothes_07s.jpg	0	0.0	0	94.1894465597579	94.23942945653108	0.0499828967731446	16968
17.068	50	32	0	0	tape	1622	32	0	stimuli\tape\tape_05s.jpg	4	-1	0	0	tape_05s.jpg	0	0.0	0	94.2894501437549	94.3394323090906	0.0499821653356776	17068
17.168	50	33	0	0	praying_mantis	1238	33	0	stimuli\praying_mantis\praying_mantis_06s.jpg	5	-1	0	0	praying_mantis_06s.jpg	0	0.0	0	94.3894581163768	94.43943589308759	0.0499777767108753	17168
17.268	50	34	0	0	french_fries	641	34	0	stimuli\french_fries\french_fries_07s.jpg	6	-1	0	0	french_fries_07s.jpg	0	0.0	0	94.4894551174948	94.5394424028345	0.0499872853397392	17268
17.368	50	35	0	0	cabbage	232	35	0	stimuli\cabbage\cabbage_03s.jpg	2	-1	0	1	cabbage_03s.jpg	0	0.0	0	94.589459676703	94.63944232970242	0.0499826529994607	17368
17.468	50	36	0	0	doorstop	512	36	0	stimuli\doorstop\doorstop_10s.jpg	9	-1	0	0	doorstop_10s.jpg	0	0.0	0	94.68946131027771	94.73944420699259	0.0499828967149369	17468
17.568	50	37	0	0	gavel	665	37	0	stimuli\gavel\gavel_02s.jpg	1	-1	0	0	gavel_02s.jpg	0	0.0	0	94.7894636752317	94.83944705961041	0.0499833843787201	17568
17.668	50	38	0	0	centrifuge	296	38	0	stimuli\centrifuge\centrifuge_12s.jpg	11	-1	0	0	centrifuge_12s.jpg	1	0.34190990118077	1	94.8894660401857	94.93945113121299	0.0499850910273381	17668
17.768	50	39	0	0	switch	1600	39	0	stimuli\switch\switch_06s.jpg	5	-1	0	0	switch_06s.jpg	0	0.0	0	94.9894671860384	95.03945227712391	0.0499850910855457	17768
17.868	50	40	0	0	napkin	1050	40	0	stimuli\napkin\napkin_07s.jpg	6	-1	0	0	napkin_07s.jpg	0	0.0	0	95.0894707700354	95.1394651258597	0.0499943558243103	17868
17.968	50	41	0	0	seafood	1394	41	0	stimuli\seafood\seafood_08s.jpg	7	-1	0	0	seafood_08s.jpg	0	0.0	0	95.18947337882129	95.23946115176659	0.0499877729453146	17968
18.068	50	42	0	0	tray	1705	42	0	stimuli\tray\tray_01s.jpg	0	-1	0	0	tray_01s.jpg	0	0.0	0	95.2894774504239	95.3394583967165	0.0499809462926351	18068
18.168	50	43	0	0	odometer	1071	43	0	stimuli\odometer\odometer_02s.jpg	1	-1	0	0	odometer_02s.jpg	0	0.0	0	95.38948103442091	95.4394624683773	0.0499814339564182	18168
18.268	50	44	0	0	wheelchair	1808	44	0	stimuli\wheelchair\wheelchair_09n.jpg	8	-1	0	0	wheelchair_09n.jpg	0	0.0	0	95.48948022985131	95.53946385806191	0.0499836282106116	18268
18.368	50	45	0	0	brick	199	45	0	stimuli\brick\brick_01b.jpg	0	-1	0	0	brick_01b.jpg	0	0.0	0	95.5894867395982	95.6394689049339	0.0499821653356776	18368
18.468	50	46	0	0	ivy	834	46	0	stimuli\ivy\ivy_03s.jpg	2	-1	0	0	ivy_03s.jpg	1	0.0	0	95.6894886169466	95.73949833272492	0.0500097157782875	18468
18.568	50	47	0	0	wax_paper	1796	47	0	stimuli\wax_paper\wax_paper_03s.jpg	2	-1	0	0	wax_paper_03s.jpg	0	0.0	0	95.7894909818424	95.83947217196692	0.0499811901245266	18568
18.668	50	48	0	0	bead	100	48	0	stimuli\bead\bead_05s.jpg	4	-1	0	0	bead_05s.jpg	0	0.0	0	95.8894957849407	95.9394757559639	0.0499799710232764	18668
18.768	50	49	0	0	tugboat	1725	49	0	stimuli\tugboat\tugboat_07s.jpg	6	-1	0	0	tugboat_07s.jpg	0	0.0	0	95.9895042451099	96.0394783647498	0.0499741196399555	18768
18.868	50	50	0	0	torso	1685	50	0	stimuli\torso\torso_02s.jpg	1	-1	0	0	torso_02s.jpg	0	0.0	0	96.0894983205362	96.13948024204001	0.049981921503786	18868
18.968	50	51	0	0	fruitcake	646	51	0	stimuli\fruitcake\fruitcake_09s.jpg	8	-1	0	0	fruitcake_09s.jpg	0	0.0	0	96.1895021483651	96.2394835822633	0.0499814338982105	18968
19.068	50	52	0	0	sonogram	1496	52	0	stimuli\sonogram\sonogram_04s.jpg	3	-1	0	0	sonogram_04s.jpg	1	0.0	0	96.28950256283859	96.33948667865481	0.0499841158161871	19068
19.168	50	53	0	0	stereo	1549	53	0	stimuli\stereo\stereo_07s.jpg	6	-1	0	0	stereo_07s.jpg	0	0.0	0	96.3895044401288	96.4394890436088	0.0499846034799702	19168
19.268	50	54	0	0	gold	687	54	0	stimuli\gold\gold_11s.jpg	10	-1	0	0	gold_11s.jpg	0	0.0	0	96.4895089993952	96.53949311521141	0.0499841158161871	19268
19.368	50	55	0	0	curtain	465	55	0	stimuli\curtain\curtain_10s.jpg	9	-1	0	0	curtain_10s.jpg	0	0.0	0	96.58951112051729	96.63949474872791	0.0499836282106116	19368
19.468	50	56	0	0	spear	1510	56	0	stimuli\spear\spear_01s.jpg	0	-1	0	0	spear_01s.jpg	0	0.0	0	96.6895154359518	96.7394966260763	0.0499811901245266	19468
19.568	50	57	0	0	cheetah	315	57	0	stimuli\cheetah\cheetah_05s.jpg	4	-1	0	0	cheetah_05s.jpg	0	0.0	0	96.78951828851129	96.83949777198721	0.0499794834759086	19568
19.668	50	58	0	0	forklift	635	58	0	stimuli\forklift\forklift_12s.jpg	11	-1	0	0	forklift_12s.jpg	0	0.0	0	96.88950578111691	96.93953012546991	0.0500243443530053	19668
19.768	50	59	0	0	chip	333	59	0	stimuli\chip\chip_07n.jpg	6	-1	0	0	chip_07n.jpg	0	0.0	0	96.9895305765094	97.0395285894629	0.0499980129534379	19768
19.868	50	60	0	0	notepad	1065	60	0	stimuli\notepad\notepad_07s.jpg	6	-1	0	0	notepad_07s.jpg	0	0.0	0	97.0895497643505	97.1395326611237	0.0499828967731446	19868
19.968	50	61	0	0	footprint	632	61	0	stimuli\footprint\footprint_02s.jpg	1	-1	0	0	footprint_02s.jpg	0	0.0	0	97.18955529882808	97.23951357079201	0.0499582719639875	19968
20.068	50	62	0	0	shoe_polish	1424	62	0	stimuli\shoe_polish\shoe_polish_04s.jpg	3	-1	0	0	shoe_polish_04s.jpg	0	0.0	0	97.28955644473899	97.3395347091137	0.0499782643746585	20068
20.168	50	63	0	0	towel	1692	63	0	stimuli\towel\towel_08s.jpg	7	-1	0	0	towel_08s.jpg	0	0.0	0	97.389558809693	97.4395380492788	0.0499792395858094	20168
20.268	50	64	0	0	firetruck	596	64	0	stimuli\firetruck\firetruck_02s.jpg	1	-1	0	0	firetruck_02s.jpg	0	0.0	0	97.48951046227009	97.53954163327579	0.0500311710056849	20268
20.368	50	65	0	0	lollipop	945	65	0	stimuli\lollipop\lollipop_07s.jpg	6	-1	0	0	lollipop_07s.jpg	0	0.0	0	97.58956451481208	97.6395457049366	0.0499811901245266	20368
20.468	50	66	0	0	t-shirt	1606	66	0	stimuli\t-shirt\t-shirt_04s.jpg	3	-1	0	0	t-shirt_04s.jpg	0	0.0	0	97.6895690740785	97.7395461194101	0.049977045331616	20468
20.568	50	67	0	0	chicken2	323	67	0	stimuli\chicken2\chicken2_11s.jpg	10	-1	0	0	chicken2_11s.jpg	0	0.0	0	97.7895733894547	97.8395487281377	0.049975338682998	20568
20.668	50	68	0	0	playpen	1200	68	0	stimuli\playpen\playpen_12s.jpg	11	-1	0	0	playpen_12s.jpg	0	0.0	0	97.88957209727958	97.9395530435722	0.0499809462926351	20668
20.768	50	69	0	0	crane	431	69	0	stimuli\crane\crane_09s.jpg	8	-1	0	0	crane_09s.jpg	0	0.0	0	97.989575193671	98.03955613996371	0.0499809462926351	20768
20.868	50	70	0	0	mistletoe	1007	70	0	stimuli\mistletoe\mistletoe_02s.jpg	1	-1	0	0	mistletoe_02s.jpg	0	0.0	0	98.08958341006658	98.1395597239607	0.0499763138941489	20868
20.968	50	71	0	0	ladle	887	71	0	stimuli\ladle\ladle_01b.jpg	0	-1	0	0	ladle_01b.jpg	0	0.0	0	98.1895847997512	98.23956062603969	0.0499758262885734	20968
21.068	50	72	0	0	net	1057	72	0	stimuli\net\net_12s.jpg	11	-1	0	0	net_12s.jpg	0	0.0	0	98.289582288533	98.33956640434921	0.0499841158161871	21068
21.168	50	73	0	0	birdhouse	131	73	0	stimuli\birdhouse\birdhouse_07s.jpg	6	-1	0	0	birdhouse_07s.jpg	0	0.0	0	98.38958733540491	98.43956974451429	0.0499824091093615	21168
21.268	50	74	0	0	clam	349	74	0	stimuli\clam\clam_08s.jpg	7	-1	0	0	clam_08s.jpg	0	0.0	0	98.48958701844091	98.53956747712799	0.0499804586870596	21268
21.368	50	75	0	0	plaster_cast	1195	75	0	stimuli\plaster_cast\plaster_cast_05s.jpg	4	-1	0	0	plaster_cast_05s.jpg	0	0.0	0	98.58958938339491	98.63957081729309	0.0499814338982105	21368
21.468	50	76	0	0	costume	419	76	0	stimuli\costume\costume_02s.jpg	1	-1	0	0	costume_02s.jpg	0	0.0	0	98.68959589308359	98.73957635177071	0.0499804586870596	21468
21.568	50	77	0	0	puddle	1247	77	0	stimuli\puddle\puddle_09s.jpg	8	-1	0	0	puddle_09s.jpg	0	0.0	0	98.7895955761196	98.8395774976816	0.0499819215619937	21568
21.668	50	78	0	0	tapestry	1625	78	0	stimuli\tapestry\tapestry_12s.jpg	11	-1	0	0	tapestry_12s.jpg	0	0.0	0	98.88959794107359	98.939580594073	0.0499826529994607	21668
21.768	50	79	0	0	platypus	1198	79	0	stimuli\platypus\platypus_04s.jpg	3	-1	0	0	platypus_04s.jpg	0	0.0	0	98.9895993308164	99.0395814961521	0.0499821653356776	21768
21.868	50	80	0	0	amber	18	80	0	stimuli\amber\amber_11s.jpg	10	-1	0	0	amber_11s.jpg	0	0.0	0	99.08960754721191	99.1395828858367	0.0499753386247903	21868
21.968	50	81	0	0	box	181	81	0	stimuli\box\box_06s.jpg	5	-1	0	0	box_06s.jpg	0	0.0	0	99.18960601120492	99.2395864698337	0.0499804586288519	21968
22.069	50	82	0	0	magnet	956	82	0	stimuli\magnet\magnet_04s.jpg	3	-1	0	0	magnet_04s.jpg	0	0.0	0	99.28961130185048	99.33959078526821	0.049979483417701	22069
22.169	50	83	0	0	pump	1252	83	0	stimuli\pump\pump_09s.jpg	8	-1	0	0	pump_09s.jpg	0	0.0	0	99.3896119601559	99.4395887616556	0.0499768014997244	22169
22.269	50	84	0	0	fly	621	84	0	stimuli\fly\fly_06s.jpg	5	-1	0	0	fly_06s.jpg	0	0.0	0	99.4896111555863	99.53959527140249	0.0499841158161871	22269
22.369	50	85	0	0	butterfly	229	85	0	stimuli\butterfly\butterfly_05s.jpg	4	-1	0	0	butterfly_05s.jpg	0	0.0	0	99.58961888431801	99.63959983061069	0.0499809462926351	22369
22.469	50	86	0	0	comic_book	391	86	0	stimuli\comic_book\comic_book_09s.jpg	8	-1	0	0	comic_book_09s.jpg	0	0.0	0	99.6896210054983	99.73960024508409	0.0499792395858094	22469
22.569	50	87	0	0	trunk	1722	87	0	stimuli\trunk\trunk_05s.jpg	4	-1	0	0	trunk_05s.jpg	0	0.0	0	99.78962312662041	99.8396021224326	0.0499789958121255	22569
22.669	50	88	0	0	diskette	493	88	0	stimuli\diskette\diskette_09s.jpg	8	-1	0	0	diskette_09s.jpg	0	0.0	0	99.8896237849258	99.9396037559491	0.0499799710232764	22669
22.769	50	89	0	0	loincloth	944	89	0	stimuli\loincloth\loincloth_08s.jpg	7	-1	0	0	loincloth_08s.jpg	0	0.0	0	99.9896239555674	100.039606364735	0.0499824091675691	22769
22.869	50	90	0	0	lightning_bug	929	90	0	stimuli\lightning_bug\lightning_bug_04s.jpg	3	-1	0	0	lightning_bug_04s.jpg	0	0.0	0	100.089627539564	100.13961165538099	0.0499841158161871	22869
22.969	50	91	0	0	broom	203	91	0	stimuli\broom\broom_07s.jpg	6	-1	0	0	broom_07s.jpg	0	0.0	0	100.189631854999	100.23961402033501	0.0499821653356776	22969
23.069	50	92	0	0	mandolin	965	92	0	stimuli\mandolin\mandolin_01s.jpg	0	-1	0	0	mandolin_01s.jpg	0	0.0	0	100.289637389476	100.33961589768299	0.049978508206550004	23069
23.169	50	93	0	0	rhubarb	1307	93	0	stimuli\rhubarb\rhubarb_10n.jpg	9	-1	0	0	rhubarb_10n.jpg	0	0.0	0	100.389638047782	100.439618750243	0.0499807024607435	23169
23.269	50	94	0	0	globe	679	94	0	stimuli\globe\globe_02s.jpg	1	-1	0	0	globe_02s.jpg	0	0.0	0	100.489639437466	100.539620383759	0.0499809462926351	23269
23.369	50	95	0	0	radio	1273	95	0	stimuli\radio\radio_09s.jpg	8	-1	0	0	radio_09s.jpg	0	0.0	0	100.58964204625201	100.63962469919399	0.049982652941253	23369
23.469	50	96	0	0	lighter	928	96	0	stimuli\lighter\lighter_11s.jpg	10	-1	0	0	lighter_11s.jpg	0	0.0	0	100.689644898812	100.739638523199	0.0499936243868433	23469
23.569	50	97	0	0	file1	583	97	0	stimuli\file1\file1_10s.jpg	9	-1	0	0	file1_10s.jpg	0	0.0	0	100.789649701852	100.83962747862101	0.049977776769083	23569
23.669	50	98	0	0	turkey	1733	98	0	stimuli\turkey\turkey_08s.jpg	7	-1	0	0	turkey_08s.jpg	0	0.0	0	100.88965669920401	100.939634719747	0.0499780205427669	23669
23.769	50	99	0	0	oyster	1092	99	0	stimuli\oyster\oyster_06s.jpg	5	-1	0	0	oyster_06s.jpg	0	0.0	0	100.98965418792801	101.039659027592	0.0500048396643251	23769
23.869	50	100	0	0	piglet	1173	100	0	stimuli\piglet\piglet_02s.jpg	1	-1	0	0	piglet_02s.jpg	0	0.0	0	101.089657284319	101.139635792526	0.049978508206550004	23869
23.969	50	101	0	0	tamale	1618	101	0	stimuli\tamale\tamale_12s.jpg	11	-1	0	0	tamale_12s.jpg	0	0.0	0	101.189658917836	101.23963815748002	0.0499792396440171	23969
24.069	50	102	0	0	donut	505	102	0	stimuli\donut\donut_09s.jpg	8	-1	0	0	donut_09s.jpg	0	0.0	0	101.289660307579	101.33964296052	0.049982652941253	24069
24.169	50	103	0	0	block	143	103	0	stimuli\block\block_05s.jpg	4	-1	0	0	block_05s.jpg	0	0.0	0	101.389663647744	101.43964703212299	0.0499833843787201	24169
24.269	50	104	0	0	barrel	76	104	0	stimuli\barrel\barrel_08s.jpg	7	-1	0	0	barrel_08s.jpg	0	0.0	0	101.489667719346	101.539647202822	0.0499794834759086	24269
24.369	50	105	0	0	thorn	1650	105	0	stimuli\thorn\thorn_08s.jpg	7	-1	0	0	thorn_08s.jpg	0	0.0	0	101.58966740244101	101.63964883633899	0.0499814338982105	24369
24.469	50	106	0	0	champagne	304	106	0	stimuli\champagne\champagne_11s.jpg	10	-1	0	0	champagne_11s.jpg	0	0.0	0	101.689670255	101.739653883211	0.0499836282106116	24469
24.569	50	107	0	0	propeller	1243	107	0	stimuli\propeller\propeller_05s.jpg	4	-1	0	0	propeller_05s.jpg	0	0.0	0	101.789673595165	101.83965893002501	0.0499853348592296	24569
24.669	50	108	0	0	honey	788	108	0	stimuli\honey\honey_07s.jpg	6	-1	0	0	honey_07s.jpg	0	0.0	0	101.889678885869	101.93965910072399	0.049980214855167994	24669
24.769	50	109	0	0	coffeemaker	382	109	0	stimuli\coffeemaker\coffeemaker_05s.jpg	4	-1	0	0	coffeemaker_05s.jpg	0	0.0	0	101.98968076315901	102.039660002803	0.0499792396440171	24769
24.869	50	110	0	0	taxi	1630	110	0	stimuli\taxi\taxi_02s.jpg	1	-1	0	0	taxi_02s.jpg	0	0.0	0	102.08968385955099	102.139664074406	0.049980214855167994	24869
24.969	50	111	0	0	snowboard	1481	111	0	stimuli\snowboard\snowboard_05s.jpg	4	-1	0	0	snowboard_05s.jpg	0	0.0	0	102.18967379024299	102.239669121278	0.0499953310354613	24969
25.069	50	112	0	0	lemon	914	112	0	stimuli\lemon\lemon_08s.jpg	7	-1	0	0	lemon_08s.jpg	0	0.0	0	102.289690539939	102.339669048146	0.049978508206550004	25069
25.169	50	113	0	0	bun	220	113	0	stimuli\bun\bun_04s.jpg	3	-1	0	0	bun_04s.jpg	0	0.0	0	102.389691929682	102.439675070229	0.0499831405468285	25169
25.269	50	114	0	0	visor	1766	114	0	stimuli\visor\visor_10s.jpg	9	-1	0	0	visor_10s.jpg	0	0.0	0	102.48969380697201	102.539673290448	0.0499794834759086	25269
25.369	50	115	0	0	spaghetti	1503	115	0	stimuli\spaghetti\spaghetti_01b.jpg	0	-1	0	0	spaghetti_01b.jpg	0	0.0	0	102.589694952883	102.639675655344	0.0499807024607435	25369
25.469	50	116	0	0	jigsaw_puzzle	851	116	0	stimuli\jigsaw_puzzle\jigsaw_puzzle_07s.jpg	6	-1	0	0	jigsaw_puzzle_07s.jpg	0	0.0	0	102.689697805443	102.739679483173	0.0499816777301021	25469
25.569	50	117	0	0	column	388	117	0	stimuli\column\column_12s.jpg	11	-1	0	0	column_12s.jpg	0	0.0	0	102.789699195186	102.839684042439	0.0499848472536542	25569
25.669	50	118	0	0	plug	1202	118	0	stimuli\plug\plug_09s.jpg	8	-1	0	0	plug_09s.jpg	0	0.0	0	102.889703998226	102.93968689499901	0.0499828967731446	25669
25.769	50	119	0	0	artichoke	39	119	0	stimuli\artichoke\artichoke_09s.jpg	8	-1	0	0	artichoke_09s.jpg	0	0.0	0	102.98970855749201	103.03968925995301	0.0499807024607435	25769
25.869	50	120	0	0	juicer2	856	120	0	stimuli\juicer2\juicer2_05s.jpg	4	-1	0	0	juicer2_05s.jpg	0	0.0	0	103.089711897657	103.139698695391	0.0499867977341637	25869
25.969	50	121	0	0	mast	981	121	0	stimuli\mast\mast_10s.jpg	9	-1	0	1	mast_10s.jpg	0	0.0	0	103.18971182452499	103.239694233635	0.0499824091093615	25969
26.069	50	122	0	0	nose	1063	122	0	stimuli\nose\nose_06s.jpg	5	-1	0	0	nose_06s.jpg	0	0.0	0	103.289715408522	103.339695867151	0.0499804586288519	26069
26.169	50	123	0	0	dishwashing_liquid	492	123	0	stimuli\dishwashing_liquid\dishwashing_liquid_09s.jpg	8	-1	0	0	dishwashing_liquid_09s.jpg	0	0.0	0	103.38971728587099	103.43969579401899	0.0499785081483424	26169
26.269	50	124	0	0	crystal_ball	455	124	0	stimuli\crystal_ball\crystal_ball_03s.jpg	2	-1	0	0	crystal_ball_03s.jpg	1	0.34192501736106395	1	103.48972647747699	103.539702791371	0.0499763138941489	26269
26.369	50	125	0	0	latte	901	125	0	stimuli\latte\latte_09s.jpg	8	-1	0	0	latte_09s.jpg	0	0.0	0	103.589724210033	103.639704181056	0.0499799710232764	26369
26.469	50	126	0	0	swizzle_stick	1601	126	0	stimuli\swizzle_stick\swizzle_stick_03s.jpg	2	-1	0	0	swizzle_stick_03s.jpg	0	0.0	0	103.68972706259198	103.73970678984199	0.0499797272495925	26469
26.569	50	127	0	0	teddy_bear	1635	127	0	stimuli\teddy_bear\teddy_bear_06s.jpg	5	-1	0	0	teddy_bear_06s.jpg	0	0.0	0	103.789733572339	103.839707691921	0.0499741195817478	26569
26.669	50	128	0	0	snowmobile	1483	128	0	stimuli\snowmobile\snowmobile_04s.jpg	3	-1	0	0	snowmobile_04s.jpg	0	0.0	0	103.88973276777	103.93971273879299	0.0499799710232764	26669
26.769	50	129	0	0	confetti	396	129	0	stimuli\confetti\confetti_03s.jpg	2	-1	0	0	confetti_03s.jpg	0	0.0	0	103.98973659554001	104.039717298059	0.0499807025189511	26769
26.869	50	130	0	0	clarinet	350	130	0	stimuli\clarinet\clarinet_10s.jpg	9	-1	0	0	clarinet_10s.jpg	0	0.0	0	104.08973579097099	104.139715762052	0.0499799710814841	26869
26.969	50	131	0	0	chihuahua	326	131	0	stimuli\chihuahua\chihuahua_09s.jpg	8	-1	0	0	chihuahua_09s.jpg	0	0.0	0	104.189738887362	104.239719346049	0.0499804586870596	26969
27.069	50	132	0	0	folder	625	132	0	stimuli\folder\folder_11s.jpg	10	-1	0	0	folder_11s.jpg	0	0.0	0	104.28974222752701	104.339720735734	0.049978508206550004	27069
27.169	50	133	0	0	dreidel	517	133	0	stimuli\dreidel\dreidel_07s.jpg	6	-1	0	0	dreidel_07s.jpg	0	0.0	0	104.38974532391899	104.439728952129	0.0499836282106116	27169
27.269	50	134	0	0	scalpel	1374	134	0	stimuli\scalpel\scalpel_11s.jpg	10	-1	0	0	scalpel_11s.jpg	0	0.0	0	104.48974646983	104.539729366603	0.0499828967731446	27269
27.369	50	135	0	0	bracelet1	187	135	0	stimuli\bracelet1\bracelet1_12s.jpg	11	-1	0	0	bracelet1_12s.jpg	0	0.0	0	104.589754930057	104.639729781076	0.0499748510192148	27369
27.469	50	136	0	0	cleat	353	136	0	stimuli\cleat\cleat_10s.jpg	9	-1	0	0	cleat_10s.jpg	0	0.0	0	104.689751931175	104.73973458411601	0.049982652941253	27469
27.569	50	137	0	0	ticktacktoe	1657	137	0	stimuli\ticktacktoe\ticktacktoe_03s.jpg	2	-1	0	0	ticktacktoe_03s.jpg	0	0.0	0	104.78975673421499	104.839734023379	0.0499772891635075	27569
27.669	50	138	0	0	golf_club	690	138	0	stimuli\golf_club\golf_club_01b.jpg	0	-1	0	0	golf_club_01b.jpg	0	0.0	0	104.88975909916901	104.93974248354799	0.0499833843787201	27669
27.769	50	139	0	0	chipmunk	334	139	0	stimuli\chipmunk\chipmunk_05s.jpg	4	-1	0	0	chipmunk_05s.jpg	0	0.0	0	104.98976024508	105.03974119137301	0.0499809462926351	27769
27.869	50	140	0	0	sundae	1582	140	0	stimuli\sundae\sundae_07s.jpg	6	-1	0	0	sundae_07s.jpg	0	0.0	0	105.08976626716299	105.13974526297501	0.0499789958121255	27869
27.969	50	141	0	0	doorknocker	510	141	0	stimuli\doorknocker\doorknocker_10s.jpg	9	-1	0	0	doorknocker_10s.jpg	0	0.0	0	105.189769119723	105.239749334578	0.049980214855167994	27969
28.069	50	142	0	0	bell_pepper	117	142	0	stimuli\bell_pepper\bell_pepper_12s.jpg	11	-1	0	0	bell_pepper_12s.jpg	0	0.0	0	105.289767339942	105.33974682336	0.049979483417701	28069
28.169	50	143	0	0	dog	495	143	0	stimuli\dog\dog_10s.jpg	9	-1	0	0	dog_10s.jpg	0	0.0	0	105.38976994867	105.439750894962	0.0499809462926351	28169
28.269	50	144	0	0	undershirt	1744	144	0	stimuli\undershirt\undershirt_09s.jpg	8	-1	0	0	undershirt_09s.jpg	0	0.0	0	105.489774264104	105.539753259916	0.0499789958121255	28269
28.369	50	145	0	0	beer	113	145	0	stimuli\beer\beer_03s.jpg	2	-1	0	0	beer_03s.jpg	0	0.0	0	105.58977711666401	105.639754893433	0.049977776769083	28369
28.469	50	146	0	0	test_tube	1645	146	0	stimuli\test_tube\test_tube_09s.jpg	8	-1	0	0	test_tube_09s.jpg	0	0.0	0	105.68977899401199	105.73976115934799	0.0499821653356776	28469
28.569	50	147	0	0	mug	1036	147	0	stimuli\mug\mug_03s.jpg	2	-1	0	0	mug_03s.jpg	0	0.0	0	105.789780139923	105.83976328052799	0.0499831406050362	28569
28.669	50	148	0	0	dial	483	148	0	stimuli\dial\dial_05s.jpg	4	-1	0	0	dial_05s.jpg	0	0.0	0	105.889786893444	105.93976491404499	0.0499780206009746	28669
28.769	50	149	0	0	cream	436	149	0	stimuli\cream\cream_11s.jpg	10	-1	0	1	cream_11s.jpg	0	0.0	0	105.989792184148	106.039769960858	0.0499777767108753	28769
28.869	50	150	0	0	jump_rope	858	150	0	stimuli\jump_rope\jump_rope_05s.jpg	4	-1	0	0	jump_rope_05s.jpg	0	0.0	0	106.08978967287099	106.13977208203899	0.0499824091675691	28869
28.969	50	151	0	0	scarecrow	1376	151	0	stimuli\scarecrow\scarecrow_09s.jpg	8	-1	0	0	scarecrow_09s.jpg	0	0.0	0	106.18979618261801	106.239772008907	0.0499758262885734	28969
29.069	50	152	0	0	knitting_needle	881	152	0	stimuli\knitting_needle\knitting_needle_08s.jpg	7	-1	0	0	knitting_needle_08s.jpg	0	0.0	0	106.289795621822	106.339772910986	0.0499772891635075	29069
29.169	50	153	0	0	marker	975	153	0	stimuli\marker\marker_05s.jpg	4	-1	0	0	marker_05s.jpg	1	0.4099278738140129	1	106.389798718214	106.439777714026	0.0499789958121255	29169
29.269	50	154	0	0	fossil	636	154	0	stimuli\fossil\fossil_07s.jpg	6	-1	0	0	fossil_07s.jpg	0	0.0	0	106.48979840125	106.539778859937	0.0499804586870596	29269
29.369	50	155	0	0	fork	634	155	0	stimuli\fork\fork_02s.jpg	1	-1	0	0	fork_02s.jpg	0	0.0	0	106.589811981423	106.63978585728901	0.0499738758662716	29369
29.469	50	156	0	0	nail_file	1048	156	0	stimuli\nail_file\nail_file_03s.jpg	2	-1	0	0	nail_file_03s.jpg	0	0.0	0	106.68981166451701	106.73978724697399	0.0499755824566819	29469
29.569	50	157	0	0	doorhandle	508	157	0	stimuli\doorhandle\doorhandle_05s.jpg	4	-1	0	0	doorhandle_05s.jpg	0	0.0	0	106.789808178029	106.839788149053	0.0499799710232764	29569
29.669	50	158	0	0	banana_peel	64	158	0	stimuli\banana_peel\banana_peel_02s.jpg	1	-1	0	0	banana_peel_02s.jpg	0	0.0	0	106.889812005858	106.939791976882	0.0499799710232764	29669
29.769	50	159	0	0	telescope	1640	159	0	stimuli\telescope\telescope_01b.jpg	0	-1	0	0	telescope_01b.jpg	0	0.0	0	106.98981339554301	107.039794341836	0.0499809462926351	29769
29.869	50	160	0	0	rickshaw	1310	160	0	stimuli\rickshaw\rickshaw_06s.jpg	5	-1	0	0	rickshaw_06s.jpg	0	0.0	0	107.089816248103	107.139796950622	0.0499807025189511	29869
29.969	50	161	0	0	stiletto	1554	161	0	stimuli\stiletto\stiletto_10s.jpg	9	-1	0	0	stiletto_10s.jpg	0	0.0	0	107.18981788161899	107.239798340306	0.0499804586870596	29969
30.069	50	162	0	0	ice-cream_cone	817	162	0	stimuli\ice-cream_cone\ice-cream_cone_10s.jpg	9	-1	0	0	ice-cream_cone_10s.jpg	0	0.0	0	107.28982219705401	107.33980265574101	0.0499804586870596	30069
30.169	50	163	0	0	stem	1547	163	0	stimuli\stem\stem_07s.jpg	6	-1	0	0	stem_07s.jpg	0	0.0	0	107.389825293445	107.43980404542499	0.0499787519802339	30169
30.269	50	164	0	0	bassinet	85	164	0	stimuli\bassinet\bassinet_08s.jpg	7	-1	0	0	bassinet_08s.jpg	0	0.0	0	107.48982643935601	107.539807141817	0.0499807024607435	30269
30.369	50	165	0	0	watch	1786	165	0	stimuli\watch\watch_01b.jpg	0	-1	0	0	watch_01b.jpg	0	0.0	0	107.58982880431	107.63980804395399	0.0499792396440171	30369
30.469	50	166	0	0	robot	1318	166	0	stimuli\robot\robot_07s.jpg	6	-1	0	0	robot_07s.jpg	0	0.0	0	107.689833363518	107.73981528508001	0.0499819215619937	30469
30.569	50	167	0	0	chinchilla	332	167	0	stimuli\chinchilla\chinchilla_06s.jpg	5	-1	0	0	chinchilla_06s.jpg	0	0.0	0	107.789834509429	107.83981569955401	0.0499811901245266	30569
30.669	50	168	0	0	frame	639	168	0	stimuli\frame\frame_11s.jpg	10	-1	0	0	frame_11s.jpg	0	0.0	0	107.889838093426	107.939822453074	0.0499843596480787	30669
30.769	50	169	0	0	stethoscope	1550	169	0	stimuli\stethoscope\stethoscope_01b.jpg	0	-1	0	0	stethoscope_01b.jpg	0	0.0	0	107.98983826412599	108.03981994185601	0.0499816777301021	30769
30.869	50	170	0	0	tape_measure	1623	170	0	stimuli\tape_measure\tape_measure_08s.jpg	7	-1	0	0	tape_measure_08s.jpg	0	0.0	0	108.089843310998	108.139823769627	0.0499804586288519	30869
30.969	50	171	0	0	ball	59	171	0	stimuli\ball\ball_06s.jpg	5	-1	0	0	ball_06s.jpg	0	0.0	0	108.189845919725	108.23982857266701	0.049982652941253	30969
31.069	50	172	0	0	wafer	1769	172	0	stimuli\wafer\wafer_05s.jpg	4	-1	0	0	wafer_05s.jpg	0	0.0	0	108.28984950372299	108.339834107144	0.0499846034217626	31069
31.169	50	173	0	0	hamster	743	173	0	stimuli\hamster\hamster_05s.jpg	4	-1	0	0	hamster_05s.jpg	0	0.0	0	108.38985186867599	108.439831352094	0.049979483417701	31169
31.269	50	174	0	0	hotplate	806	174	0	stimuli\hotplate\hotplate_07n.jpg	6	-1	0	0	hotplate_07n.jpg	0	0.0	0	108.489853989799	108.53983396088002	0.0499799710814841	31269
31.369	50	175	0	0	roulette_wheel	1335	175	0	stimuli\roulette_wheel\roulette_wheel_04s.jpg	3	-1	0	0	roulette_wheel_04s.jpg	0	0.0	0	108.589854648104	108.63983778870899	0.0499831406050362	31369
31.469	50	176	0	0	scale	1371	176	0	stimuli\scale\scale_11s.jpg	10	-1	0	0	scale_11s.jpg	0	0.0	0	108.689862620668	108.73983820318199	0.0499755825148895	31469
31.569	50	177	0	0	sundial	1583	177	0	stimuli\sundial\sundial_01b.jpg	0	-1	0	0	sundial_01b.jpg	0	0.0	0	108.789862303704	108.839842762391	0.0499804586870596	31569
31.669	50	178	0	0	kimono	873	178	0	stimuli\kimono\kimono_10s.jpg	9	-1	0	0	kimono_10s.jpg	0	0.0	0	108.889867350576	108.939827085473	0.0499597348971292	31669
31.769	50	179	0	0	garbage_truck	656	179	0	stimuli\garbage_truck\garbage_truck_05s.jpg	4	-1	0	0	garbage_truck_05s.jpg	0	0.0	0	108.98986800888099	109.039846029424	0.0499780205427669	31769
31.869	50	180	0	0	olive	1075	180	0	stimuli\olive\olive_01b.jpg	0	-1	0	0	olive_01b.jpg	0	0.0	0	109.08986891096	109.13985107629601	0.0499821653356776	31869
31.969	50	181	0	0	snorkel	1478	181	0	stimuli\snorkel\snorkel_02s.jpg	1	-1	0	0	snorkel_02s.jpg	0	0.0	0	109.18987932161	109.239852466038	0.0499731444288045	31969
32.069	50	182	0	0	barcode	73	182	0	stimuli\barcode\barcode_01b.jpg	0	-1	0	0	barcode_01b.jpg	0	0.0	0	109.28987656656	109.339855074766	0.049978508206550004	32069
32.169	50	183	0	0	overalls	1090	183	0	stimuli\overalls\overalls_09s.jpg	8	-1	0	0	overalls_09s.jpg	0	0.0	0	109.389879175345	109.43986036547	0.0499811901245266	32169
32.269	50	184	0	0	racehorse	1267	184	0	stimuli\racehorse\racehorse_03s.jpg	2	-1	0	0	racehorse_03s.jpg	0	0.0	0	109.489882515511	109.539868338034	0.0499858225230128	32269
32.369	50	185	0	0	notebook	1064	185	0	stimuli\notebook\notebook_03s.jpg	2	-1	0	0	notebook_03s.jpg	0	0.0	0	109.58988390525299	109.639863632503	0.0499797272495925	32369
32.469	50	186	0	0	dryer	524	186	0	stimuli\dryer\dryer_03s.jpg	2	-1	0	0	dryer_03s.jpg	0	0.0	0	109.68988553876999	109.739866485063	0.0499809462926351	32469
32.569	50	187	0	0	turntable	1735	187	0	stimuli\turntable\turntable_06s.jpg	5	-1	0	0	turntable_06s.jpg	0	0.0	0	109.78988741611799	109.83986763097299	0.049980214855167994	32569
32.669	50	188	0	0	marble	972	188	0	stimuli\marble\marble_06s.jpg	5	-1	0	0	marble_06s.jpg	1	0.0	0	109.889893682033	109.939874628326	0.0499809462926351	32669
32.769	50	189	0	0	drumstick	523	189	0	stimuli\drumstick\drumstick_02s.jpg	1	-1	0	0	drumstick_02s.jpg	0	0.0	0	109.98989434028	110.03987991897199	0.0499855786911212	32769
32.869	50	190	0	0	ribbon	1308	190	0	stimuli\ribbon\ribbon_10s.jpg	9	-1	0	0	ribbon_10s.jpg	0	0.0	0	110.089894267148	110.139877163921	0.0499828967731446	32869
32.969	50	191	0	0	silicone	1444	191	0	stimuli\silicone\silicone_09s.jpg	8	-1	0	0	silicone_09s.jpg	0	0.0	0	110.18989736353998	110.239880747919	0.0499833843787201	32969
33.069	50	192	0	0	panther	1106	192	0	stimuli\panther\panther_02s.jpg	1	-1	0	0	panther_02s.jpg	0	0.0	0	110.28990265418501	110.339887745271	0.0499850910855457	33069
33.169	50	193	0	0	awning	44	193	0	stimuli\awning\awning_12s.jpg	11	-1	0	0	awning_12s.jpg	0	0.0	0	110.38991355249901	110.43988620926399	0.0499726567650214	33169
33.269	50	194	0	0	wood	1833	194	0	stimuli\wood\wood_04s.jpg	3	-1	0	0	wood_04s.jpg	0	0.0	0	110.489906652656	110.539888086612	0.0499814339564182	33269
33.369	50	195	0	0	creme_brulee	439	195	0	stimuli\creme_brulee\creme_brulee_11s.jpg	10	-1	0	0	creme_brulee_11s.jpg	0	0.0	0	110.58991096808998	110.63988752581601	0.0499765577260405	33369
33.469	50	196	0	0	plunger	1204	196	0	stimuli\plunger\plunger_08s.jpg	7	-1	0	0	plunger_08s.jpg	0	0.0	0	110.68993722641599	110.739891353645	0.0499541272292845	33469
33.569	50	197	0	0	basketball_hoop	84	197	0	stimuli\basketball_hoop\basketball_hoop_07s.jpg	6	-1	0	0	basketball_hoop_07s.jpg	0	0.0	0	110.789914966561	110.839895912854	0.0499809462926351	33569
33.669	50	198	0	0	pine_needle	1180	198	0	stimuli\pine_needle\pine_needle_03s.jpg	2	-1	0	0	pine_needle_03s.jpg	0	0.0	0	110.889917087741	110.939904129249	0.0499870415078476	33669
33.769	50	199	0	0	handle	748	199	0	stimuli\handle\handle_05s.jpg	4	-1	0	0	handle_05s.jpg	0	0.0	0	110.98992237838699	111.039900886593	0.049978508206550004	33769
33.869	50	200	0	0	fern	577	200	0	stimuli\fern\fern_06s.jpg	5	-1	0	0	fern_06s.jpg	0	0.0	0	111.089933764306	111.139903982985	0.0499702186789364	33869
33.969	50	201	0	0	snowplow	1484	201	0	stimuli\snowplow\snowplow_03s.jpg	2	-1	0	0	snowplow_03s.jpg	0	0.0	0	111.18992637685699	111.23990512889601	0.0499787520384416	33969
34.069	50	202	0	0	steamroller	1545	202	0	stimuli\steamroller\steamroller_06s.jpg	5	-1	0	0	steamroller_06s.jpg	0	0.0	0	111.289930936124	111.339907981455	0.049977045331616	34069
34.169	50	203	0	0	button1	230	203	0	stimuli\button1\button1_08s.jpg	7	-1	0	0	button1_08s.jpg	0	0.0	0	111.38992988772199	111.439910346409	0.0499804586870596	34169
34.269	50	204	0	0	barnacle	75	204	0	stimuli\barnacle\barnacle_09s.jpg	8	-1	0	0	barnacle_09s.jpg	0	0.0	0	111.489935178368	111.539915149449	0.0499799710814841	34269
34.369	50	205	0	0	pocket	1205	205	0	stimuli\pocket\pocket_02s.jpg	1	-1	0	0	pocket_02s.jpg	0	0.0	0	111.589938762365	111.63991897722	0.049980214855167994	34369
34.469	50	206	0	0	needle	1055	206	0	stimuli\needle\needle_06s.jpg	5	-1	0	0	needle_06s.jpg	0	0.0	0	111.689943077799	111.73991987935699	0.049976801557932	34469
34.569	50	207	0	0	pennant	1148	207	0	stimuli\pennant\pennant_09s.jpg	8	-1	0	0	pennant_09s.jpg	0	0.0	0	111.789940810413	111.83992175664801	0.0499809462344274	34569
34.669	50	208	0	0	pillow	1176	208	0	stimuli\pillow\pillow_01b.jpg	0	-1	0	0	pillow_01b.jpg	0	0.0	0	111.88994366297301	111.939924121602	0.0499804586288519	34669
34.769	50	209	0	0	bag	54	209	0	stimuli\bag\bag_12s.jpg	11	-1	0	0	bag_12s.jpg	0	0.0	0	111.98994432122	112.039932094223	0.0499877730035223	34769
34.869	50	210	0	0	trumpet	1721	210	0	stimuli\trumpet\trumpet_09s.jpg	8	-1	0	0	trumpet_09s.jpg	0	0.0	0	112.089949855697	112.13993177725901	0.0499819215619937	34869
34.969	50	211	0	0	turnstile	1734	211	0	stimuli\turnstile\turnstile_02s.jpg	1	-1	0	0	turnstile_02s.jpg	0	0.0	0	112.18995831592501	112.239936580299	0.0499782643746585	34969
35.069	50	212	0	0	duster	534	212	0	stimuli\duster\duster_04s.jpg	3	-1	0	0	duster_04s.jpg	0	0.0	0	112.289955804648	112.33993772621	0.0499819215619937	35069
35.169	50	213	0	0	camper	249	213	0	stimuli\camper\camper_05s.jpg	4	-1	0	0	camper_05s.jpg	0	0.0	0	112.38995768199699	112.43994057876999	0.0499828967731446	35169
35.269	50	214	0	0	chive	337	214	0	stimuli\chive\chive_07s.jpg	6	-1	0	0	chive_07s.jpg	0	0.0	0	112.48998418409599	112.539943918935	0.0499597348389216	35269
35.369	50	215	0	0	submarine	1577	215	0	stimuli\submarine\submarine_07s.jpg	6	-1	0	0	submarine_07s.jpg	0	0.0	0	112.58996972622101	112.63994262676	0.0499729005387053	35369
35.469	50	216	0	0	coffee_table	381	216	0	stimuli\coffee_table\coffee_table_12s.jpg	11	-1	0	0	coffee_table_12s.jpg	0	0.0	0	112.689965995902	112.739946454589	0.0499804586870596	35469
35.569	50	217	0	0	toaster	1666	217	0	stimuli\toaster\toaster_01b.jpg	0	-1	0	0	toaster_01b.jpg	0	0.0	0	112.789974943735	112.839948819543	0.0499738758080639	35569
35.669	50	218	0	0	piano	1165	218	0	stimuli\piano\piano_01b.jpg	0	-1	0	0	piano_01b.jpg	0	0.0	0	112.889971701079	112.939950209227	0.0499785081483424	35669
35.769	50	219	0	0	backpack	49	219	0	stimuli\backpack\backpack_06s.jpg	5	-1	0	0	backpack_06s.jpg	0	0.0	0	112.98997821076799	113.039955987537	0.049977776769083	35769
35.869	50	220	0	0	armor	37	220	0	stimuli\armor\armor_03s.jpg	2	-1	0	0	armor_03s.jpg	0	0.0	0	113.08997789380399	113.13995591440501	0.0499780206009746	35869
35.969	50	221	0	0	soup	1499	221	0	stimuli\soup\soup_06s.jpg	5	-1	0	0	soup_06s.jpg	0	0.0	0	113.18997952732	113.239960473613	0.0499809462926351	35969
36.069	50	222	0	0	gurney	728	222	0	stimuli\gurney\gurney_05s.jpg	4	-1	0	0	gurney_05s.jpg	0	0.0	0	113.28997969802	113.339962107129	0.0499824091093615	36069
36.169	50	223	0	0	stove2	1564	223	0	stimuli\stove2\stove2_11s.jpg	10	-1	0	0	stove2_11s.jpg	0	0.0	0	113.38998376962299	113.43996447208299	0.0499807024607435	36169
36.269	50	224	0	0	cork	409	224	0	stimuli\cork\cork_01b.jpg	0	-1	0	0	cork_01b.jpg	0	0.0	0	113.48998857266301	113.5399661056	0.0499775329371914	36269
36.369	50	225	0	0	goldfish	688	225	0	stimuli\goldfish\goldfish_01b.jpg	0	-1	0	0	goldfish_01b.jpg	0	0.0	0	113.589989230968	113.639971640077	0.0499824091093615	36369
36.469	50	226	0	0	potholder	1232	226	0	stimuli\potholder\potholder_06s.jpg	5	-1	0	0	potholder_06s.jpg	0	0.0	0	113.689994277782	113.739973273594	0.0499789958121255	36469
36.569	50	227	0	0	jelly_bean	844	227	0	stimuli\jelly_bean\jelly_bean_03s.jpg	2	-1	0	0	jelly_bean_03s.jpg	0	0.0	0	113.789995667525	113.839974663337	0.0499789958121255	36569
36.669	50	228	0	0	meatloaf	990	228	0	stimuli\meatloaf\meatloaf_12s.jpg	11	-1	0	0	meatloaf_12s.jpg	0	0.0	0	113.889996081998	113.939977028291	0.0499809462926351	36669
36.769	50	229	0	0	barbed_wire	71	229	0	stimuli\barbed_wire\barbed_wire_05s.jpg	4	-1	0	0	barbed_wire_05s.jpg	0	0.0	0	113.98999893455799	114.039978661807	0.0499797272495925	36769
36.869	50	230	0	0	sewage	1405	230	0	stimuli\sewage\sewage_06s.jpg	5	-1	0	0	sewage_06s.jpg	0	0.0	0	114.09000300616002	114.139982977242	0.0499799710814841	36869
36.969	50	231	0	0	stained_glass	1531	231	0	stimuli\stained_glass\stained_glass_10s.jpg	9	-1	0	0	stained_glass_10s.jpg	0	0.0	0	114.19000537111401	114.239993144118	0.0499877730035223	36969
37.069	50	232	0	0	clock	359	232	0	stimuli\clock\clock_04n.jpg	3	-1	0	0	clock_04n.jpg	0	0.0	0	114.29000993038099	114.339988438587	0.049978508206550004	37069
37.169	50	233	0	0	fishhook	602	233	0	stimuli\fishhook\fishhook_06s.jpg	5	-1	0	0	fishhook_06s.jpg	0	0.0	0	114.39001229533501	114.43999226635799	0.0499799710232764	37169
37.269	50	234	0	0	top_hat	1682	234	0	stimuli\top_hat\top_hat_05s.jpg	4	-1	0	0	top_hat_05s.jpg	0	0.0	0	114.490011490765	114.53999438753799	0.0499828967731446	37269
37.369	50	235	0	0	wall	1775	235	0	stimuli\wall\wall_05s.jpg	4	-1	0	0	wall_05s.jpg	0	0.0	0	114.590018975723	114.64000016578899	0.049981190066318994	37369
37.469	50	236	0	0	brass_knuckles	193	236	0	stimuli\brass_knuckles\brass_knuckles_06s.jpg	5	-1	0	0	brass_knuckles_06s.jpg	0	0.0	0	114.69002134067699	114.739999117446	0.049977776769083	37469
37.569	50	237	0	0	traffic_light	1696	237	0	stimuli\traffic_light\traffic_light_07s.jpg	6	-1	0	0	traffic_light_07s.jpg	0	0.0	0	114.790020048444	114.840000994736	0.0499809462926351	37569
37.669	50	238	0	0	lego	913	238	0	stimuli\lego\lego_01b.jpg	0	-1	0	0	lego_01b.jpg	0	0.0	0	114.89002168201799	114.94000433496001	0.049982652941253	37669
37.769	50	239	0	0	mat	982	239	0	stimuli\mat\mat_02s.jpg	1	-1	0	0	mat_02s.jpg	0	0.0	0	114.99002721649599	115.040009625605	0.0499824091093615	37769
37.869	50	240	0	0	earwig	541	240	0	stimuli\earwig\earwig_05s.jpg	4	-1	0	0	earwig_05s.jpg	0	0.0	0	115.090029825224	115.14000955247299	0.0499797272495925	37869
37.969	50	241	0	0	sombrero	1495	241	0	stimuli\sombrero\sombrero_04s.jpg	3	-1	0	0	sombrero_04s.jpg	0	0.0	0	115.19003706635	115.24001411174	0.0499770453898236	37969
38.069	50	242	0	0	mashed_potato	979	242	0	stimuli\mashed_potato\mashed_potato_04s.jpg	3	-1	0	0	mashed_potato_04s.jpg	0	0.0	0	115.29003284848301	115.340016964299	0.0499841158161871	38069
38.169	50	243	0	0	dart	473	243	0	stimuli\dart\dart_11s.jpg	10	-1	0	0	dart_11s.jpg	0	0.0	0	115.39003570104299	115.440019329253	0.0499836282106116	38169
38.269	50	244	0	0	light_switch	926	244	0	stimuli\light_switch\light_switch_05s.jpg	4	-1	0	0	light_switch_05s.jpg	0	0.0	0	115.490040260251	115.54001901228901	0.0499787520384416	38269
38.369	50	245	0	0	porcupine	1226	245	0	stimuli\porcupine\porcupine_06s.jpg	5	-1	0	0	porcupine_06s.jpg	0	0.0	0	115.590040918556	115.64002771628999	0.0499867977341637	38369
38.469	50	246	0	0	horse	798	246	0	stimuli\horse\horse_08s.jpg	7	-1	0	0	horse_08s.jpg	0	0.0	0	115.69004913495199	115.740025205072	0.04997607012046499	38469
38.569	50	247	0	0	gingerbread_man	674	247	0	stimuli\gingerbread_man\gingerbread_man_06s.jpg	5	-1	0	0	gingerbread_man_06s.jpg	0	0.0	0	115.790045892296	115.840029520448	0.04998362815240401	38569
38.669	50	248	0	0	penlight	1147	248	0	stimuli\penlight\penlight_09s.jpg	8	-1	0	0	penlight_09s.jpg	0	0.0	0	115.89005410863301	115.94003212923401	0.0499780206009746	38669
38.769	50	249	0	0	lettuce	920	249	0	stimuli\lettuce\lettuce_05n.jpg	4	-1	0	0	lettuce_05n.jpg	0	0.0	0	115.990053304064	116.04003473802	0.0499814339564182	38769
38.869	50	250	0	0	ukulele	1742	250	0	stimuli\ukulele\ukulele_11s.jpg	10	-1	0	0	ukulele_11s.jpg	0	0.0	0	116.090061764291	116.14003564009899	0.0499738758080639	38869
38.969	50	251	0	0	marshmallow	977	251	0	stimuli\marshmallow\marshmallow_10s.jpg	9	-1	0	0	marshmallow_10s.jpg	0	0.0	0	116.19005925301501	116.24003898026399	0.0499797272495925	38969
39.069	50	252	0	0	backgammon	48	252	0	stimuli\backgammon\backgammon_05s.jpg	4	-1	0	0	backgammon_05s.jpg	0	0.0	0	116.290062105632	116.34004110144501	0.0499789958121255	39069
39.169	50	253	0	0	tattoo	1629	253	0	stimuli\tattoo\tattoo_11s.jpg	10	-1	0	0	tattoo_11s.jpg	0	0.0	0	116.390065689629	116.440050049219	0.04998435958987099	39169
39.269	50	254	0	0	koala	884	254	0	stimuli\koala\koala_01b.jpg	0	-1	0	0	koala_01b.jpg	0	0.0	0	116.49006805458299	116.540047538001	0.049979483417701	39269
39.369	50	255	0	0	hamburger	740	255	0	stimuli\hamburger\hamburger_07s.jpg	6	-1	0	0	hamburger_07s.jpg	0	0.0	0	116.5900696881	116.640050634393	0.0499809462926351	39369
39.469	50	256	0	0	rocking_horse	1322	256	0	stimuli\rocking_horse\rocking_horse_04s.jpg	3	-1	0	0	rocking_horse_04s.jpg	0	0.0	0	116.690071321616	116.740058119351	0.0499867977341637	39469
39.569	50	257	0	0	shorts	1430	257	0	stimuli\shorts\shorts_01b.jpg	0	-1	0	0	shorts_01b.jpg	0	0.0	0	116.790078075137	116.84005755855499	0.049979483417701	39569
39.669	50	258	0	0	cement_mixer	294	258	0	stimuli\cement_mixer\cement_mixer_07s.jpg	6	-1	0	0	cement_mixer_07s.jpg	0	0.0	0	116.890077026736	116.940058460634	0.0499814338982105	39669
39.769	50	259	0	0	hot_tub	804	259	0	stimuli\hot_tub\hot_tub_08s.jpg	7	-1	0	0	hot_tub_08s.jpg	0	0.0	0	116.99007939168999	117.04006033798201	0.0499809462926351	39769
39.869	50	260	0	0	lamb	889	260	0	stimuli\lamb\lamb_12s.jpg	11	-1	0	0	lamb_12s.jpg	0	0.0	0	117.090083950956	117.140063678205	0.0499797272495925	39869
39.969	50	261	0	0	beaver	107	261	0	stimuli\beaver\beaver_03s.jpg	2	-1	0	0	beaver_03s.jpg	0	0.0	0	117.190086803515	117.240068481246	0.0499816777301021	39969
40.069	50	262	0	0	panties	1107	262	0	stimuli\panties\panties_12s.jpg	11	-1	0	0	panties_12s.jpg	0	0.0	0	117.290058936109	117.3400708462	0.0500119100906886	40069
40.169	50	263	0	0	swab	1590	263	0	stimuli\swab\swab_03s.jpg	2	-1	0	0	swab_03s.jpg	0	0.0	0	117.390096653427	117.44006931019199	0.0499726567650214	40169
40.269	50	264	0	0	counter	424	264	0	stimuli\counter\counter_06s.jpg	5	-1	0	0	counter_06s.jpg	0	0.0	0	117.490096336463	117.540076063713	0.0499797272495925	40269
40.369	50	265	0	0	polar_bear	1211	265	0	stimuli\polar_bear\polar_bear_12s.jpg	11	-1	0	0	polar_bear_12s.jpg	0	0.0	0	117.59009675093701	117.64008184196399	0.0499850910273381	40369
40.469	50	266	0	0	ambulance	19	266	0	stimuli\ambulance\ambulance_11s.jpg	10	-1	0	0	ambulance_11s.jpg	0	0.0	0	117.69009716541001	117.740080306015	0.0499831406050362	40469
40.569	50	267	0	0	airboat	8	267	0	stimuli\airboat\airboat_05s.jpg	4	-1	0	0	airboat_05s.jpg	0	0.0	0	117.79010196844999	117.84008072048901	0.0499787520384416	40569
40.669	50	268	0	0	razor	1290	268	0	stimuli\razor\razor_11n.jpg	10	-1	0	0	razor_11n.jpg	0	0.0	0	117.890106040053	117.940085279697	0.0499792396440171	40669
40.769	50	269	0	0	tweezers	1739	269	0	stimuli\tweezers\tweezers_07s.jpg	6	-1	0	0	tweezers_07s.jpg	0	0.0	0	117.990131079336	118.040087644651	0.0499565653153695	40769
40.869	50	270	0	0	spool	1518	270	0	stimuli\spool\spool_03s.jpg	2	-1	0	0	spool_03s.jpg	0	0.0	0	118.090108088101	118.140094885777	0.04998679767595599	40869
40.969	50	271	0	0	paperweight	1117	271	0	stimuli\paperweight\paperweight_02s.jpg	1	-1	0	0	paperweight_02s.jpg	0	0.0	0	118.190111915872	118.24009530025101	0.0499833843787201	40969
41.069	50	272	0	0	soldering_iron	1494	272	0	stimuli\soldering_iron\soldering_iron_08s.jpg	7	-1	0	0	soldering_iron_08s.jpg	0	0.0	0	118.290115987533	118.34011985187	0.0500038643367589	41069
41.169	50	273	0	0	gel	669	273	0	stimuli\gel\gel_02s.jpg	1	-1	0	0	gel_02s.jpg	0	0.0	0	118.390116889612	118.44010027399099	0.0499833843787201	41169
41.269	50	274	0	0	camera1	246	274	0	stimuli\camera1\camera1_10s.jpg	9	-1	0	0	camera1_10s.jpg	0	0.0	0	118.49012437456999	118.540099713253	0.049975338682998	41269
41.369	50	275	0	0	wallpaper	1777	275	0	stimuli\wallpaper\wallpaper_02s.jpg	1	-1	0	0	wallpaper_02s.jpg	0	0.0	0	118.590130640485	118.64010329725001	0.0499726567650214	41369
41.469	50	276	0	0	pepper1	1149	276	0	stimuli\pepper1\pepper1_04s.jpg	3	-1	0	0	pepper1_04s.jpg	0	0.0	0	118.690126666392	118.74010736885201	0.0499807024607435	41469
41.569	50	277	0	0	gourd	696	277	0	stimuli\gourd\gourd_09s.jpg	8	-1	0	0	gourd_09s.jpg	0	0.0	0	118.790128543682	118.84011412237301	0.0499855786911212	41569
41.669	50	278	0	0	landmine	894	278	0	stimuli\landmine\landmine_06s.jpg	5	-1	0	0	landmine_06s.jpg	0	0.0	0	118.89013188390498	118.940114780678	0.0499828967731446	41669
41.769	50	279	0	0	pipe2	1187	279	0	stimuli\pipe2\pipe2_12s.jpg	11	-1	0	0	pipe2_12s.jpg	0	0.0	0	118.99013522407	119.04011373227699	0.049978508206550004	41769
41.869	50	280	0	0	hail	732	280	0	stimuli\hail\hail_04s.jpg	3	-1	0	0	hail_04s.jpg	0	0.0	0	119.09013466333299	119.14011780388	0.0499831405468285	41869
41.969	50	281	0	0	antelope	26	281	0	stimuli\antelope\antelope_02n.jpg	1	-1	0	0	antelope_02n.jpg	0	0.0	0	119.190139953978	119.24012138787701	0.0499814338982105	41969
42.069	50	282	0	0	washing_machine	1784	282	0	stimuli\washing_machine\washing_machine_11s.jpg	10	-1	0	0	washing_machine_11s.jpg	0	0.0	0	119.290141099889	119.340123021393	0.049981921503786	42069
42.169	50	283	0	0	pony	1220	283	0	stimuli\pony\pony_12s.jpg	11	-1	0	0	pony_12s.jpg	0	0.0	0	119.390163213422	119.440125874011	0.0499626605887897	42169
42.269	50	284	0	0	cake	237	284	0	stimuli\cake\cake_12s.jpg	11	-1	0	0	cake_12s.jpg	0	0.0	0	119.490152900282	119.54013384657401	0.0499809462926351	42269
42.369	50	285	0	0	statue	1543	285	0	stimuli\statue\statue_06s.jpg	5	-1	0	0	statue_06s.jpg	0	0.0	0	119.590147950919	119.64012840960599	0.0499804586870596	42369
42.469	50	286	0	0	cardinal	274	286	0	stimuli\cardinal\cardinal_08s.jpg	7	-1	0	0	cardinal_08s.jpg	0	0.0	0	119.690176403499	119.740134187916	0.0499577844166197	42469
42.569	50	287	0	0	chisel	336	287	0	stimuli\chisel\chisel_11s.jpg	10	-1	0	0	chisel_11s.jpg	0	0.0	0	119.79015682562	119.840135089995	0.0499782643746585	42569
42.669	50	288	0	0	racket	1270	288	0	stimuli\racket\racket_12s.jpg	11	-1	0	0	racket_12s.jpg	0	0.0	0	119.890157240094	119.940137211117	0.0499799710232764	42669
42.769	50	289	0	0	hot-water_bottle	802	289	0	stimuli\hot-water_bottle\hot-water_bottle_10s.jpg	9	-1	0	0	hot-water_bottle_10s.jpg	0	0.0	0	119.990160580259	120.040144939907	0.0499843596480787	42769
42.869	50	290	0	0	spinach	1515	290	0	stimuli\spinach\spinach_11s.jpg	10	-1	0	0	spinach_11s.jpg	0	0.0	0	120.090164164256	120.140144622943	0.0499804586870596	42869
42.969	50	291	0	0	vase	1753	291	0	stimuli\vase\vase_12n.jpg	11	-1	0	0	vase_12n.jpg	0	0.0	0	120.19016921112801	120.24014820693998	0.0499789958121255	42969
43.069	50	292	0	0	calzone	243	292	0	stimuli\calzone\calzone_05s.jpg	4	-1	0	0	calzone_05s.jpg	0	0.0	0	120.290168162726	120.340148865245	0.0499807025189511	43069
43.169	50	293	0	0	soda	1490	293	0	stimuli\soda\soda_04s.jpg	3	-1	0	0	soda_04s.jpg	0	0.0	0	120.39016930863701	120.440150986367	0.0499816777301021	43169
43.269	50	294	0	0	blimp	139	294	0	stimuli\blimp\blimp_12s.jpg	11	-1	0	0	blimp_12s.jpg	0	0.0	0	120.490175818384	120.54015505796998	0.0499792395858094	43269
43.369	50	295	0	0	crystal2	454	295	0	stimuli\crystal2\crystal2_11s.jpg	10	-1	0	0	crystal2_11s.jpg	0	0.0	0	120.590183790948	120.64015986101002	0.0499760700622573	43369
43.469	50	296	0	0	kilt	872	296	0	stimuli\kilt\kilt_08s.jpg	7	-1	0	0	kilt_08s.jpg	0	0.0	0	120.690179573023	120.740173685015	0.0499941119924188	43469
43.569	50	297	0	0	microscope	999	297	0	stimuli\microscope\microscope_10s.jpg	9	-1	0	0	microscope_10s.jpg	0	0.0	0	120.790180231328	120.840159958578	0.0499797272495925	43569
43.669	50	298	0	0	bracket	189	298	0	stimuli\bracket\bracket_04s.jpg	3	-1	0	0	bracket_04s.jpg	0	0.0	0	120.890165285789	120.940163298743	0.0499980129534379	43669
43.769	50	299	0	0	surfboard	1587	299	0	stimuli\surfboard\surfboard_05s.jpg	4	-1	0	0	surfboard_05s.jpg	0	0.0	0	120.990189105971	121.040173709393	0.0499846034217626	43769
43.869	50	300	0	0	biscuit	133	300	0	stimuli\biscuit\biscuit_06s.jpg	5	-1	0	0	biscuit_06s.jpg	0	0.0	0	121.090194396616	121.140158763912	0.0499643672956154	43869
43.969	50	301	0	0	tank1	1620	301	0	stimuli\tank1\tank1_01b.jpg	0	-1	0	0	tank1_01b.jpg	0	0.0	0	121.19019334827298	121.240171125042	0.049977776769083	43969
44.069	50	302	0	0	float	616	302	0	stimuli\float\float_08s.jpg	7	-1	0	0	float_08s.jpg	0	0.0	0	121.290195957001	121.340174952813	0.0499789958121255	44069
44.169	50	303	0	0	antenna	27	303	0	stimuli\antenna\antenna_01b.jpg	0	-1	0	0	antenna_01b.jpg	0	0.0	0	121.39017150295	121.440178293036	0.050006790086627	44169
44.269	50	304	0	0	cruise_ship	450	304	0	stimuli\cruise_ship\cruise_ship_10s.jpg	9	-1	0	0	cruise_ship_10s.jpg	0	0.0	0	121.490202393616	121.540186021768	0.04998362815240401	44269
44.369	50	305	0	0	van	1752	305	0	stimuli\van\van_06s.jpg	5	-1	0	0	van_06s.jpg	0	0.0	0	121.59020427090599	121.64018497342501	0.0499807025189511	44369
44.469	50	306	0	0	headlamp	764	306	0	stimuli\headlamp\headlamp_11s.jpg	10	-1	0	0	headlamp_11s.jpg	0	0.0	0	121.69020883017201	121.740184900234	0.0499760700622573	44469
44.569	50	307	0	0	pan	1103	307	0	stimuli\pan\pan_08s.jpg	7	-1	0	0	pan_08s.jpg	0	0.0	0	121.790207294165	121.840189703333	0.0499824091675691	44569
44.669	50	308	0	0	card	271	308	0	stimuli\card\card_08s.jpg	7	-1	0	0	card_08s.jpg	0	0.0	0	121.89020746480699	121.94019328733	0.0499858225230128	44669
59.736	50	309	0	0	knot	883	0	1	stimuli\knot\knot_12s.jpg	11	-1	1	0	knot_12s.jpg	1	0.0	0	136.957284332835	137.00725991535	0.0499755825148895	59736
59.836	50	310	0	0	cutting_board	467	1	1	stimuli\cutting_board\cutting_board_08s.jpg	7	-1	1	0	cutting_board_08s.jpg	0	0.0	0	137.05728401587098	137.107265205996	0.0499811901245266	59836
59.936	50	311	0	0	pinball	1178	2	1	stimuli\pinball\pinball_07s.jpg	6	-1	1	0	pinball_07s.jpg	0	0.0	0	137.15728589321998	137.207264889032	0.0499789958121255	59936
60.036	50	312	0	0	boa	150	3	1	stimuli\boa\boa_10s.jpg	9	-1	1	0	boa_10s.jpg	0	0.0	0	137.257288989611	137.30726798542298	0.0499789958121255	60036
60.136	50	313	0	0	honeycomb	789	4	1	stimuli\honeycomb\honeycomb_02s.jpg	1	-1	1	0	honeycomb_02s.jpg	0	0.0	0	137.357290379296	137.407275470381	0.0499850910855457	60136
60.236	50	314	0	0	tostada	1688	5	1	stimuli\tostada\tostada_11s.jpg	10	-1	1	0	tostada_11s.jpg	0	0.0	0	137.45729469473	137.50727954198402	0.0499848472536542	60236
60.336	50	315	0	0	bonnet	163	6	1	stimuli\bonnet\bonnet_12s.jpg	11	-1	1	0	bonnet_12s.jpg	0	0.0	0	137.557297059684	137.60727605549602	0.0499789958121255	60336
60.436	50	316	0	0	poodle	1221	7	1	stimuli\poodle\poodle_01b.jpg	0	-1	1	0	poodle_01b.jpg	0	0.0	0	137.65730259416202	137.707278908056	0.0499763138941489	60436
60.536	50	317	0	0	bank	69	8	1	stimuli\bank\bank_11s.jpg	10	-1	1	0	bank_11s.jpg	0	0.0	0	137.757299839112	137.807282979717	0.0499831406050362	60536
60.636	50	318	0	0	toga	1669	9	1	stimuli\toga\toga_07s.jpg	6	-1	1	0	toga_07s.jpg	0	0.0	0	137.857303179335	137.907291439886	0.0499882605508901	60636
60.736	50	319	0	0	tuning_fork	1728	10	1	stimuli\tuning_fork\tuning_fork_10s.jpg	9	-1	1	0	tuning_fork_10s.jpg	0	0.0	0	137.957307007106	138.007289660105	0.0499826529994607	60736
60.836	50	320	0	0	syrup	1605	11	1	stimuli\syrup\syrup_01s.jpg	0	-1	1	0	syrup_01s.jpg	0	0.0	0	138.05731302924698	138.107297145005	0.0499841157579795	60836
60.936	50	321	0	0	dirt_bike	488	12	1	stimuli\dirt_bike\dirt_bike_03s.jpg	2	-1	1	0	dirt_bike_03s.jpg	0	0.0	0	138.15731027419702	138.20729048905199	0.049980214855167994	60936
61.036	50	322	0	0	luggage	948	13	1	stimuli\luggage\luggage_05s.jpg	4	-1	1	0	luggage_05s.jpg	0	0.0	0	138.25731166388098	138.307295535866	0.0499838719842955	61036
61.136	50	323	0	0	umbrella	1743	14	1	stimuli\umbrella\umbrella_05s.jpg	4	-1	1	0	umbrella_05s.jpg	0	0.0	0	138.357316466921	138.40730082657	0.0499843596480787	61136
61.236	50	324	0	0	oil	1072	15	1	stimuli\oil\oil_11s.jpg	10	-1	1	0	oil_11s.jpg	0	0.0	0	138.45731834427	138.50729758391398	0.0499792396440171	61236
61.336	50	325	0	0	pot	1230	16	1	stimuli\pot\pot_03s.jpg	2	-1	1	0	pot_03s.jpg	0	0.0	0	138.557321684435	138.607305068814	0.0499833843787201	61336
61.436	50	326	0	0	calamari	239	17	1	stimuli\calamari\calamari_10s.jpg	9	-1	1	0	calamari_10s.jpg	0	0.0	0	138.657329413225	138.707308409037	0.0499789958121255	61436
61.536	50	327	0	0	flamingo	608	18	1	stimuli\flamingo\flamingo_08s.jpg	7	-1	1	0	flamingo_08s.jpg	0	0.0	0	138.757326658175	138.80730565398702	0.0499789958121255	61536
61.636	50	328	0	0	rearview_mirror	1293	19	1	stimuli\rearview_mirror\rearview_mirror_02s.jpg	1	-1	1	0	rearview_mirror_02s.jpg	0	0.0	0	138.857338531699	138.90731655224198	0.0499780205427669	61636
61.736	50	329	0	0	modem	1011	20	1	stimuli\modem\modem_05s.jpg	4	-1	1	0	modem_05s.jpg	0	0.0	0	138.95733114425101	139.007314041024	0.0499828967731446	61736
61.836	50	330	0	0	pulley	1250	21	1	stimuli\pulley\pulley_12s.jpg	11	-1	1	0	pulley_12s.jpg	0	0.0	0	139.057335703517	139.107323720295	0.0499880167772062	61836
61.936	50	331	0	0	man	963	22	1	stimuli\man\man_05s.jpg	4	-1	1	0	man_05s.jpg	0	0.0	0	139.15734123799498	139.207320721413	0.049979483417701	61936
62.036	50	332	0	0	whisk	1811	23	1	stimuli\whisk\whisk_04s.jpg	3	-1	1	0	whisk_04s.jpg	0	0.0	0	139.25734799151502	139.307321867323	0.0499738758080639	62036
62.136	50	333	0	0	manhole	967	24	1	stimuli\manhole\manhole_10s.jpg	9	-1	1	0	manhole_10s.jpg	0	0.0	0	139.35734377359	139.407322525629	0.0499787520384416	62136
62.236	50	334	0	0	chalk	302	25	1	stimuli\chalk\chalk_11s.jpg	10	-1	1	0	chalk_11s.jpg	0	0.0	0	139.457351014717	139.50732976675502	0.0499787520384416	62236
62.336	50	335	0	0	unicycle	1746	26	1	stimuli\unicycle\unicycle_09s.jpg	8	-1	1	0	unicycle_09s.jpg	0	0.0	0	139.557351916854	139.60735114885	0.0499992319964804	62336
62.436	50	336	0	0	flatiron	613	27	1	stimuli\flatiron\flatiron_12s.jpg	11	-1	1	0	flatiron_12s.jpg	0	0.0	0	139.657355257019	139.707332058577	0.049976801557932	62436
62.536	50	337	0	0	monkey	1017	28	1	stimuli\monkey\monkey_03s.jpg	2	-1	1	0	monkey_03s.jpg	0	0.0	0	139.757354940055	139.807336130179	0.0499811901245266	62536
62.636	50	338	0	0	limousine	931	29	1	stimuli\limousine\limousine_02s.jpg	1	-1	1	0	limousine_02s.jpg	0	0.0	0	139.857356573571	139.90733727609	0.0499807025189511	62636
62.736	50	339	0	0	guacamole	719	30	1	stimuli\guacamole\guacamole_10s.jpg	9	-1	1	0	guacamole_10s.jpg	0	0.0	0	139.95736210804898	140.007341103861	0.0499789958121255	62736
62.836	50	340	0	0	veil	1755	31	1	stimuli\veil\veil_11s.jpg	10	-1	1	0	veil_11s.jpg	0	0.0	0	140.05736617971002	140.107350295526	0.0499841158161871	62836
62.936	50	341	0	0	cushion	466	32	1	stimuli\cushion\cushion_04s.jpg	3	-1	1	0	cushion_04s.jpg	0	0.0	0	140.157366837957	140.20734778425	0.0499809462926351	62936
63.036	50	342	0	0	photograph	1164	33	1	stimuli\photograph\photograph_04s.jpg	3	-1	1	0	photograph_04s.jpg	0	0.0	0	140.257369934348	140.30735453777	0.0499846034217626	63036
63.136	50	343	0	0	beaker	101	34	1	stimuli\beaker\beaker_05n.jpg	4	-1	1	0	beaker_05n.jpg	0	0.0	0	140.35737522505198	140.407353001763	0.0499777767108753	63136
63.236	50	344	0	0	candlestick	254	35	1	stimuli\candlestick\candlestick_06s.jpg	5	-1	1	0	candlestick_06s.jpg	0	0.0	0	140.457372957608	140.50735585438102	0.0499828967731446	63236
63.336	50	345	0	0	blower	145	36	1	stimuli\blower\blower_06s.jpg	5	-1	1	0	blower_06s.jpg	0	0.0	0	140.55737946729602	140.607360901195	0.0499814338982105	63336
63.436	50	346	0	0	palm_tree	1102	37	1	stimuli\palm_tree\palm_tree_09s.jpg	8	-1	1	0	palm_tree_09s.jpg	0	0.0	0	140.657378906559	140.707359852851	0.0499809462926351	63436
63.536	50	347	0	0	anteater	25	38	1	stimuli\anteater\anteater_08s.jpg	7	-1	1	0	anteater_08s.jpg	0	0.0	0	140.757385903853	140.807347345399	0.0499614415457472	63536
63.636	50	348	0	0	cage	236	39	1	stimuli\cage\cage_02s.jpg	1	-1	1	0	cage_02s.jpg	0	0.0	0	140.857384367904	140.907365314197	0.0499809462926351	63636
63.736	50	349	0	0	bouquet	173	40	1	stimuli\bouquet\bouquet_07s.jpg	6	-1	1	0	bouquet_07s.jpg	0	0.0	0	140.957384782378	141.007366947713	0.0499821653356776	63736
63.836	50	350	0	0	wire	1828	41	1	stimuli\wire\wire_10s.jpg	9	-1	1	0	wire_10s.jpg	0	0.0	0	141.05739251110901	141.107370287878	0.049977776769083	63836
63.936	50	351	0	0	shoelace	1426	42	1	stimuli\shoelace\shoelace_01b.jpg	0	-1	1	0	shoelace_01b.jpg	0	0.0	0	141.157391462708	141.207371921395	0.0499804586870596	63936
64.036	50	352	0	0	rattlesnake	1288	43	1	stimuli\rattlesnake\rattlesnake_07s.jpg	6	-1	1	0	rattlesnake_07s.jpg	0	0.0	0	141.25739382766199	141.30738525779498	0.0499914301326498	64036
64.136	50	353	0	0	roof_rack	1329	44	1	stimuli\roof_rack\roof_rack_11s.jpg	10	-1	1	0	roof_rack_11s.jpg	0	0.0	0	141.357397655491	141.407380308432	0.049982652941253	64136
64.236	50	354	0	0	melon	994	45	1	stimuli\melon\melon_12s.jpg	11	-1	1	0	melon_12s.jpg	0	0.0	0	141.45740123948798	141.507382917218	0.0499816777301021	64236
64.336	50	355	0	0	flour	618	46	1	stimuli\flour\flour_10s.jpg	9	-1	1	0	flour_10s.jpg	0	0.0	0	141.55740092252398	141.60738601360902	0.0499850910855457	64336
64.436	50	356	0	0	skunk	1459	47	1	stimuli\skunk\skunk_10s.jpg	9	-1	1	0	skunk_10s.jpg	0	0.0	0	141.657407919876	141.707385940477	0.0499780206009746	64436
64.536	50	357	0	0	doily	498	48	1	stimuli\doily\doily_06s.jpg	5	-1	1	0	doily_06s.jpg	0	0.0	0	141.757411260041	141.807394156815	0.0499828967731446	64536
64.636	50	358	0	0	peppermint	1152	49	1	stimuli\peppermint\peppermint_06s.jpg	5	-1	1	0	peppermint_06s.jpg	0	0.0	0	141.857414600265	141.90739115799101	0.0499765577260405	64636
64.736	50	359	0	0	icicle	824	50	1	stimuli\icicle\icicle_03s.jpg	2	-1	1	0	icicle_03s.jpg	0	0.0	0	141.95741208904698	142.00739303528098	0.0499809462344274	64736
64.836	50	360	0	0	clothesline	362	51	1	stimuli\clothesline\clothesline_05s.jpg	4	-1	1	0	clothesline_05s.jpg	0	0.0	0	142.05741518538	142.107396131672	0.0499809462926351	64836
64.936	50	361	0	0	shoe	1423	52	1	stimuli\shoe\shoe_05s.jpg	4	-1	1	0	shoe_05s.jpg	0	0.0	0	142.15741730656	142.207399959501	0.049982652941253	64936
65.036	50	362	0	0	match	983	53	1	stimuli\match\match_01b.jpg	0	-1	1	0	match_01b.jpg	0	0.0	0	142.25742186576798	142.307405493979	0.0499836282106116	65036
65.136	50	363	0	0	cordon_bleu	408	54	1	stimuli\cordon_bleu\cordon_bleu_04s.jpg	3	-1	1	0	cordon_bleu_04s.jpg	0	0.0	0	142.357428375515	142.407403226534	0.0499748510192148	65136
65.236	50	364	0	0	meatball	989	55	1	stimuli\meatball\meatball_02s.jpg	1	-1	1	0	meatball_02s.jpg	0	0.0	0	142.457425132801	142.507413881016	0.0499887482146733	65236
65.336	50	365	0	0	jukebox	857	56	1	stimuli\jukebox\jukebox_01n.jpg	0	-1	1	0	jukebox_01n.jpg	0	0.0	0	142.557429692068	142.607411369798	0.0499816777301021	65336
65.436	50	366	0	0	flipper	615	57	1	stimuli\flipper\flipper_03s.jpg	2	-1	1	0	flipper_03s.jpg	0	0.0	0	142.65743156941602	142.707410809002	0.0499792395858094	65436
65.536	50	367	0	0	starfish	1541	58	1	stimuli\starfish\starfish_03s.jpg	2	-1	1	0	starfish_03s.jpg	0	0.0	0	142.757434909581	142.807416343479	0.0499814338982105	65536
65.636	50	368	0	0	shortbread	1429	59	1	stimuli\shortbread\shortbread_11s.jpg	10	-1	1	0	shortbread_11s.jpg	0	0.0	0	142.857441663102	142.907419439871	0.049977776769083	65636
65.736	50	369	0	0	torpedo	1684	60	1	stimuli\torpedo\torpedo_05s.jpg	4	-1	1	0	torpedo_05s.jpg	0	0.0	0	142.957442321407	143.00742473051702	0.0499824091093615	65736
65.836	50	370	0	0	tuba	1723	61	1	stimuli\tuba\tuba_09s.jpg	8	-1	1	0	tuba_09s.jpg	0	0.0	0	143.057441516838	143.10742343834102	0.049981921503786	65836
65.936	50	371	0	0	cabinet	233	62	1	stimuli\cabinet\cabinet_10s.jpg	9	-1	1	0	cabinet_10s.jpg	0	0.0	0	143.157448026526	143.207425803295	0.049977776769083	65936
66.036	50	372	0	0	keyhole	871	63	1	stimuli\keyhole\keyhole_01b.jpg	0	-1	1	0	keyhole_01b.jpg	0	0.0	0	143.257449903875	143.30742841208098	0.049978508206550004	66036
66.136	50	373	0	0	sloth	1471	64	1	stimuli\sloth\sloth_03s.jpg	2	-1	1	0	sloth_03s.jpg	0	0.0	0	143.357478356455	143.407431752246	0.0499533957918175	66136
66.236	50	374	0	0	shell1	1417	65	1	stimuli\shell1\shell1_11s.jpg	10	-1	1	0	shell1_11s.jpg	0	0.0	0	143.457456340431	143.50743509247	0.0499787520384416	66236
66.336	50	375	0	0	hatchet	759	66	1	stimuli\hatchet\hatchet_12s.jpg	11	-1	1	0	hatchet_12s.jpg	0	0.0	0	143.557426278712	143.607438432635	0.0500121539225802	66336
66.436	50	376	0	0	wrap	1837	67	1	stimuli\wrap\wrap_11s.jpg	10	-1	1	0	wrap_11s.jpg	0	0.0	0	143.657458144648	143.707438847108	0.0499807024607435	66436
66.536	50	377	0	0	jeans	842	68	1	stimuli\jeans\jeans_12s.jpg	11	-1	1	0	jeans_12s.jpg	0	0.0	0	143.757460753375	143.807447307277	0.0499865539022721	66536
66.636	50	378	0	0	seal	1397	69	1	stimuli\seal\seal_12s.jpg	11	-1	1	0	seal_12s.jpg	0	0.0	0	143.857465556415	143.90744918462602	0.0499836282106116	66636
66.736	50	379	0	0	pillbox	1175	70	1	stimuli\pillbox\pillbox_08s.jpg	7	-1	1	0	pillbox_08s.jpg	0	0.0	0	143.95746718998998	144.007440821966	0.0499736319761723	66736
66.836	50	380	0	0	whoopee_cushion	1814	71	1	stimuli\whoopee_cushion\whoopee_cushion_01b.jpg	0	-1	1	0	whoopee_cushion_01b.jpg	0	0.0	0	144.057479063515	144.10745708405702	0.0499780205427669	66836
66.936	50	381	0	0	giraffe	675	72	1	stimuli\giraffe\giraffe_10s.jpg	9	-1	1	0	giraffe_10s.jpg	0	0.0	0	144.157465093187	144.207462374703	0.0499972815159708	66936
67.036	50	382	0	0	gazelle	666	73	1	stimuli\gazelle\gazelle_03s.jpg	2	-1	1	0	gazelle_03s.jpg	0	0.0	0	144.257483793364	144.30746595870002	0.0499821653356776	67036
67.136	50	383	0	0	pickle	1167	74	1	stimuli\pickle\pickle_06n.jpg	5	-1	1	0	pickle_06n.jpg	0	0.0	0	144.357468360278	144.40746466652502	0.0499963062466122	67136
67.236	50	384	0	0	underwear	1745	75	1	stimuli\underwear\underwear_07s.jpg	6	-1	1	0	underwear_07s.jpg	0	0.0	0	144.457479746139	144.507468250522	0.0499885043827817	67236
67.336	50	385	0	0	caramel	270	76	1	stimuli\caramel\caramel_04s.jpg	3	-1	1	0	caramel_04s.jpg	0	0.0	0	144.557491863496	144.60747476026899	0.0499828967731446	67336
67.436	50	386	0	0	bulletproof_vest	218	77	1	stimuli\bulletproof_vest\bulletproof_vest_02s.jpg	1	-1	1	0	bulletproof_vest_02s.jpg	0	0.0	0	144.657478137	144.707472492824	0.0499943558243103	67436
67.536	50	387	0	0	seahorse	1396	78	1	stimuli\seahorse\seahorse_09s.jpg	8	-1	1	1	seahorse_09s.jpg	0	0.0	0	144.757491961005	144.807456328243	0.0499643672374077	67536
67.636	50	388	0	0	lampshade	893	79	1	stimuli\lampshade\lampshade_04s.jpg	3	-1	1	0	lampshade_04s.jpg	0	0.0	0	144.857493106916	144.907476003689	0.0499828967731446	67636
67.736	50	389	0	0	spam	1504	80	1	stimuli\spam\spam_07s.jpg	6	-1	1	0	spam_07s.jpg	0	0.0	0	144.95749620330798	145.007478368643	0.0499821653356776	67736
67.836	50	390	0	0	egg_roll	547	81	1	stimuli\egg_roll\egg_roll_10s.jpg	9	-1	1	0	egg_roll_10s.jpg	1	0.350149199250154	1	145.057500031078	145.107481465035	0.0499814339564182	67836
67.936	50	391	0	0	banana	63	82	1	stimuli\banana\banana_09s.jpg	8	-1	1	0	banana_09s.jpg	0	0.0	0	145.157490936981	145.207465788058	0.0499748510774225	67936
68.036	50	392	0	0	beetle	115	83	1	stimuli\beetle\beetle_08n.jpg	7	-1	1	0	beetle_08n.jpg	0	0.0	0	145.25748769432502	145.307488876802	0.0500011824769899	68036
68.136	50	393	0	0	retainer	1303	84	1	stimuli\retainer\retainer_08s.jpg	7	-1	1	0	retainer_08s.jpg	0	0.0	0	145.357507857378	145.407485390315	0.0499775329371914	68136
68.236	50	394	0	0	headlight	765	85	1	stimuli\headlight\headlight_03s.jpg	2	-1	1	0	headlight_03s.jpg	0	0.0	0	145.45750680903402	145.507489705749	0.0499828967149369	68236
68.336	50	395	0	0	crowbar	447	86	1	stimuli\crowbar\crowbar_08s.jpg	7	-1	1	0	crowbar_08s.jpg	0	0.0	0	145.557512587286	145.607493533578	0.0499809462926351	68336
68.436	50	396	0	0	candy_cane	257	87	1	stimuli\candy_cane\candy_cane_06s.jpg	5	-1	1	0	candy_cane_06s.jpg	0	0.0	0	145.65751495223998	145.707489803317	0.0499748510774225	68436
68.536	50	397	0	0	thermostat	1648	88	1	stimuli\thermostat\thermostat_12s.jpg	11	-1	1	0	thermostat_12s.jpg	0	0.0	0	145.757516098151	145.807502652053	0.0499865539022721	68536
68.636	50	398	0	0	snowball	1480	89	1	stimuli\snowball\snowball_09s.jpg	8	-1	1	0	snowball_09s.jpg	0	0.0	0	145.857520657359	145.90749965317102	0.0499789958121255	68636
68.736	50	399	0	0	knife	879	90	1	stimuli\knife\knife_08s.jpg	7	-1	1	0	knife_08s.jpg	0	0.0	0	145.957520828058	146.00750567531202	0.0499848472536542	68736
68.836	50	400	0	0	candle	253	91	1	stimuli\candle\candle_06n.jpg	5	-1	1	0	candle_06n.jpg	0	0.0	0	146.057530507271	146.10750316403602	0.0499726567650214	68836
68.936	50	401	0	0	pepper2	1150	92	1	stimuli\pepper2\pepper2_05s.jpg	4	-1	1	0	pepper2_05s.jpg	0	0.0	0	146.157525314135	146.207506016653	0.0499807025189511	68936
69.036	50	402	0	0	mouthpiece	1032	93	1	stimuli\mouthpiece\mouthpiece_06s.jpg	5	-1	1	0	mouthpiece_06s.jpg	0	0.0	0	146.257526947651	146.307510088256	0.0499831406050362	69036
69.136	50	403	0	0	toast	1665	94	1	stimuli\toast\toast_11s.jpg	10	-1	1	0	toast_11s.jpg	0	0.0	0	146.357531506917	146.407510258898	0.0499787519802339	69136
69.236	50	404	0	0	tackle	1612	95	1	stimuli\tackle\tackle_09s.jpg	8	-1	1	0	tackle_09s.jpg	0	0.0	0	146.457533871871	146.507516280981	0.0499824091093615	69236
69.336	50	405	0	0	pedometer	1137	96	1	stimuli\pedometer\pedometer_07s.jpg	6	-1	1	0	pedometer_07s.jpg	0	0.0	0	146.557536236825	146.607519133599	0.0499828967731446	69336
69.436	50	406	0	0	wig	1816	97	1	stimuli\wig\wig_09s.jpg	8	-1	1	0	wig_09s.jpg	0	0.0	0	146.657537138904	146.707517597592	0.0499804586870596	69436
69.536	50	407	0	0	vending_machine	1757	98	1	stimuli\vending_machine\vending_machine_07s.jpg	6	-1	1	0	vending_machine_07s.jpg	0	0.0	0	146.757539991464	146.80752191302602	0.0499819215619937	69536
69.636	50	408	0	0	sock	1489	99	1	stimuli\sock\sock_05s.jpg	4	-1	1	0	sock_05s.jpg	0	0.0	0	146.857543331687	146.907525984629	0.049982652941253	69636
69.736	50	409	0	0	hairspray	738	100	1	stimuli\hairspray\hairspray_06s.jpg	5	-1	1	0	hairspray_06s.jpg	0	0.0	0	146.95754862233298	147.007528837188	0.049980214855167994	69736
69.836	50	410	0	0	screwdriver	1391	101	1	stimuli\screwdriver\screwdriver_02s.jpg	1	-1	1	0	screwdriver_02s.jpg	0	0.0	0	147.057549036806	147.10753120214198	0.0499821653356776	69836
69.936	50	411	0	0	crab	428	102	1	stimuli\crab\crab_10s.jpg	9	-1	1	0	crab_10s.jpg	0	0.0	0	147.157552864635	147.207535761409	0.0499828967731446	69936
70.036	50	412	0	0	skeleton	1450	103	1	stimuli\skeleton\skeleton_07s.jpg	6	-1	1	0	skeleton_07s.jpg	0	0.0	0	147.257557667675	147.307535200613	0.0499775329371914	70036
70.136	50	413	0	0	doorknob	509	104	1	stimuli\doorknob\doorknob_02s.jpg	1	-1	1	0	doorknob_02s.jpg	0	0.0	0	147.35755710688	147.407538540836	0.0499814339564182	70136
70.236	50	414	0	0	gopher	694	105	1	stimuli\gopher\gopher_02s.jpg	1	-1	1	0	gopher_02s.jpg	0	0.0	0	147.457558009017	147.50753846764601	0.0499804586288519	70236
70.336	50	415	0	0	recorder	1297	106	1	stimuli\recorder\recorder_02s.jpg	1	-1	1	0	recorder_02s.jpg	0	0.0	0	147.557565737749	147.607546440267	0.0499807025189511	70336
70.436	50	416	0	0	cornmeal	415	107	1	stimuli\cornmeal\cornmeal_10s.jpg	9	-1	1	0	cornmeal_10s.jpg	0	0.0	0	147.657569809409	147.707546610909	0.0499768014997244	70436
70.536	50	417	0	0	grapefruit	703	108	1	stimuli\grapefruit\grapefruit_08s.jpg	7	-1	1	0	grapefruit_08s.jpg	0	0.0	0	147.757569004782	147.807549219695	0.0499802149133757	70536
70.636	50	418	0	0	lunchbox	950	109	1	stimuli\lunchbox\lunchbox_11s.jpg	10	-1	1	0	lunchbox_11s.jpg	0	0.0	0	147.857575514528	147.907552803692	0.0499772891635075	70636
70.736	50	419	0	0	solar_panel	1493	110	1	stimuli\solar_panel\solar_panel_08s.jpg	7	-1	1	0	solar_panel_08s.jpg	0	0.0	0	147.957576172834	148.007552974334	0.0499768014997244	70736
70.836	50	420	0	0	basil	81	111	1	stimuli\basil\basil_10s.jpg	9	-1	1	0	basil_10s.jpg	0	0.0	0	148.057576831081	148.107558264979	0.0499814338982105	70836
70.936	50	421	0	0	dumbwaiter	531	112	1	stimuli\dumbwaiter\dumbwaiter_05s.jpg	4	-1	1	0	dumbwaiter_05s.jpg	0	0.0	0	148.157580902742	148.207563555683	0.049982652941253	70936
71.036	50	422	0	0	laser_pointer	899	113	1	stimuli\laser_pointer\laser_pointer_12s.jpg	11	-1	1	0	laser_pointer_12s.jpg	0	0.0	0	148.257581317215	148.30756128823901	0.0499799710232764	71036
71.136	50	423	0	0	tomato_sauce	1673	114	1	stimuli\tomato_sauce\tomato_sauce_08s.jpg	7	-1	1	0	tomato_sauce_08s.jpg	0	0.0	0	148.357587583072	148.407566091279	0.049978508206550004	71136
71.236	50	424	0	0	clove	365	115	1	stimuli\clove\clove_02s.jpg	1	-1	1	0	clove_02s.jpg	0	0.0	0	148.45758750994	148.507567968627	0.0499804586870596	71236
71.336	50	425	0	0	ramp	1283	116	1	stimuli\ramp\ramp_09s.jpg	8	-1	1	0	ramp_09s.jpg	0	0.0	0	148.55759060633102	148.60757325927298	0.049982652941253	71336
71.436	50	426	0	0	wasp	1785	117	1	stimuli\wasp\wasp_05s.jpg	4	-1	1	0	wasp_05s.jpg	0	0.0	0	148.65759882272698	148.707573673746	0.0499748510192148	71436
71.536	50	427	0	0	binoculars	127	118	1	stimuli\binoculars\binoculars_09s.jpg	8	-1	1	0	binoculars_09s.jpg	0	0.0	0	148.757592654321	148.807577501575	0.0499848472536542	71536
71.636	50	428	0	0	sweet_potato	1595	119	1	stimuli\sweet_potato\sweet_potato_02s.jpg	1	-1	1	0	sweet_potato_02s.jpg	0	0.0	0	148.857598188799	148.907576697005	0.049978508206550004	71636
71.736	50	429	0	0	paper_bag	1113	120	1	stimuli\paper_bag\paper_bag_06s.jpg	5	-1	1	0	paper_bag_06s.jpg	0	0.0	0	148.957600797585	149.007582231483	0.0499814338982105	71736
71.836	50	430	0	0	pajamas	1099	121	1	stimuli\pajamas\pajamas_09s.jpg	8	-1	1	0	pajamas_09s.jpg	0	0.0	0	149.057602187269	149.107585327874	0.0499831406050362	71836
71.936	50	431	0	0	hot_chocolate	803	122	1	stimuli\hot_chocolate\hot_chocolate_03s.jpg	2	-1	1	0	hot_chocolate_03s.jpg	0	0.0	0	149.157605771266	149.207587692828	0.0499819215619937	71936
72.036	50	432	0	0	mouse1	1026	123	1	stimuli\mouse1\mouse1_10s.jpg	9	-1	1	0	mouse1_10s.jpg	0	0.0	0	149.257613012451	149.30759225203698	0.0499792395858094	72036
72.136	50	433	0	0	squash	1526	124	1	stimuli\squash\squash_10s.jpg	9	-1	1	0	squash_10s.jpg	0	0.0	0	149.35761830309602	149.407595104596	0.0499768014997244	72136
72.236	50	434	0	0	pliers	1201	125	1	stimuli\pliers\pliers_11s.jpg	10	-1	1	0	pliers_11s.jpg	0	0.0	0	149.457611890917	149.507594543858	0.049982652941253	72236
72.336	50	435	0	0	hula_hoop	810	126	1	stimuli\hula_hoop\hula_hoop_10s.jpg	9	-1	1	0	hula_hoop_10s.jpg	0	0.0	0	149.557617181563	149.607596177375	0.0499789958121255	72336
72.436	50	436	0	0	chair	300	127	1	stimuli\chair\chair_09s.jpg	8	-1	1	0	chair_09s.jpg	0	0.0	0	149.65761783986798	149.707600736641	0.0499828967731446	72436
72.536	50	437	0	0	clasp	351	128	1	stimuli\clasp\clasp_02s.jpg	1	-1	1	0	clasp_02s.jpg	0	0.0	0	149.75762093626003	149.807609196811	0.0499882605508901	72536
72.636	50	438	0	0	trap	1702	129	1	stimuli\trap\trap_10s.jpg	9	-1	1	0	trap_10s.jpg	0	0.0	0	149.857627445948	149.907608148409	0.0499807024607435	72636
72.736	50	439	0	0	pogo_stick	1208	130	1	stimuli\pogo_stick\pogo_stick_02s.jpg	1	-1	1	0	pogo_stick_02s.jpg	0	0.0	0	149.95762493473	150.007611000969	0.049986066238489	72736
72.836	50	440	0	0	footrest	633	131	1	stimuli\footrest\footrest_05s.jpg	4	-1	1	0	footrest_05s.jpg	0	0.0	0	150.057629250165	150.10761214688	0.0499828967149369	72836
72.936	50	441	0	0	wooden_leg	1834	132	1	stimuli\wooden_leg\wooden_leg_11s.jpg	10	-1	1	0	wooden_leg_11s.jpg	0	0.0	0	150.157633077935	150.207615487103	0.0499824091675691	72936
73.036	50	442	0	0	cornhusk	414	133	1	stimuli\cornhusk\cornhusk_09s.jpg	8	-1	1	0	cornhusk_09s.jpg	0	0.0	0	150.257634955284	150.307621509186	0.0499865539022721	73036
73.136	50	443	0	0	wheat	1805	134	1	stimuli\wheat\wheat_01b.jpg	0	-1	1	0	wheat_01b.jpg	0	0.0	0	150.357638783113	150.407616803655	0.0499780205427669	73136
73.236	50	444	0	0	chicken1	322	135	1	stimuli\chicken1\chicken1_11s.jpg	10	-1	1	0	chicken1_11s.jpg	0	0.0	0	150.457641148067	150.507621850527	0.0499807024607435	73236
73.336	50	445	0	0	coat	369	136	1	stimuli\coat\coat_10s.jpg	9	-1	1	0	coat_10s.jpg	0	0.0	0	150.557642293919	150.607623971649	0.0499816777301021	73336
73.436	50	446	0	0	teepee	1637	137	1	stimuli\teepee\teepee_12s.jpg	11	-1	1	0	teepee_12s.jpg	0	0.0	0	150.657645877916	150.707626824209	0.0499809462926351	73436
73.536	50	447	0	0	robe	1317	138	1	stimuli\robe\robe_02s.jpg	1	-1	1	0	robe_02s.jpg	0	0.0	0	150.75765116862	150.807631139643	0.0499799710232764	73536
73.636	50	448	0	0	kazoo	864	139	1	stimuli\kazoo\kazoo_08s.jpg	7	-1	1	0	kazoo_08s.jpg	0	0.0	0	150.857652558305	150.907630822679	0.0499782643746585	73636
73.736	50	449	0	0	chin	330	140	1	stimuli\chin\chin_07s.jpg	6	-1	1	0	chin_07s.jpg	0	0.0	0	150.957654435653	151.007636113383	0.0499816777301021	73736
73.836	50	450	0	0	phone	1161	141	1	stimuli\phone\phone_03s.jpg	2	-1	1	0	phone_03s.jpg	0	0.0	0	151.057665821572	151.107640672592	0.0499748510192148	73836
73.936	50	451	0	0	envelope	558	142	1	stimuli\envelope\envelope_11s.jpg	10	-1	1	0	envelope_11s.jpg	0	0.0	0	151.157659409393	151.207637429936	0.0499780205427669	73936
74.036	50	452	0	0	blowtorch	148	143	1	stimuli\blowtorch\blowtorch_11s.jpg	10	-1	1	0	blowtorch_11s.jpg	0	0.0	0	151.25766006764	151.307644183456	0.0499841158161871	74036
74.136	50	453	0	0	sweeper	1594	144	1	stimuli\sweeper\sweeper_08s.jpg	7	-1	1	0	sweeper_08s.jpg	0	0.0	0	151.357663164032	151.40764752368	0.0499843596480787	74136
74.236	50	454	0	0	garter	659	145	1	stimuli\garter\garter_11s.jpg	10	-1	1	0	garter_11s.jpg	0	0.0	0	151.457669186115	151.507652570494	0.0499833843787201	74236
74.336	50	455	0	0	seed	1401	146	1	stimuli\seed\seed_05s.jpg	4	-1	1	0	seed_05s.jpg	0	0.0	0	151.557668625377	151.607674440253	0.0500058148754761	74336
74.436	50	456	0	0	boy	184	147	1	stimuli\boy\boy_03s.jpg	2	-1	1	0	boy_03s.jpg	0	0.0	0	151.657674891292	151.707652668061	0.049977776769083	74436
74.536	50	457	0	0	spark_plug	1506	148	1	stimuli\spark_plug\spark_plug_07s.jpg	6	-1	1	0	spark_plug_07s.jpg	0	0.0	0	151.757677743852	151.807659421582	0.0499816777301021	74536
74.636	50	458	0	0	pocket_watch	1206	149	1	stimuli\pocket_watch\pocket_watch_12s.jpg	11	-1	1	0	pocket_watch_12s.jpg	0	0.0	0	151.857686691626	151.907657641743	0.0499709501164034	74636
74.736	50	459	0	0	tinsel	1662	150	1	stimuli\tinsel\tinsel_08s.jpg	7	-1	1	0	tinsel_08s.jpg	0	0.0	0	151.957681986154	152.007664639095	0.049982652941253	74736
74.836	50	460	0	0	grain	698	151	1	stimuli\grain\grain_11s.jpg	10	-1	1	0	grain_11s.jpg	0	0.0	0	152.05768508248698	152.10766359069402	0.049978508206550004	74836
74.936	50	461	0	0	stalagmite	1534	152	1	stimuli\stalagmite\stalagmite_07s.jpg	6	-1	1	0	stalagmite_07s.jpg	0	0.0	0	152.157686959836	152.207665955648	0.0499789958121255	74936
75.036	50	462	0	0	christmas_card	340	153	1	stimuli\christmas_card\christmas_card_11s.jpg	10	-1	1	0	christmas_card_11s.jpg	0	0.0	0	152.257686399098	152.307670271082	0.0499838719842955	75036
75.136	50	463	0	0	petri_dish	1159	154	1	stimuli\petri_dish\petri_dish_05s.jpg	4	-1	1	0	petri_dish_05s.jpg	0	0.0	0	152.357694371662	152.40767263603598	0.0499782643746585	75136
75.236	50	464	0	0	eggplant	550	155	1	stimuli\eggplant\eggplant_12s.jpg	11	-1	1	0	eggplant_12s.jpg	0	0.0	0	152.457692835655	152.5076806086	0.0499877729453146	75236
75.336	50	465	0	0	pineapple	1182	156	1	stimuli\pineapple\pineapple_12s.jpg	11	-1	1	0	pineapple_12s.jpg	0	0.0	0	152.557694225339	152.607679316425	0.0499850910855457	75336
75.436	50	466	0	0	breadbox	195	157	1	stimuli\breadbox\breadbox_11s.jpg	10	-1	1	0	breadbox_11s.jpg	0	0.0	0	152.657698053168	152.707678999461	0.0499809462926351	75436
75.536	50	467	0	0	brownie	204	158	1	stimuli\brownie\brownie_10s.jpg	9	-1	1	0	brownie_10s.jpg	0	0.0	0	152.757682132418	152.807681120583	0.0499989881645888	75536
75.636	50	468	0	0	hammer	741	159	1	stimuli\hammer\hammer_07s.jpg	6	-1	1	0	hammer_07s.jpg	0	0.0	0	152.85770546499398	152.90768372936898	0.0499782643746585	75636
75.736	50	469	0	0	dogfood	496	160	1	stimuli\dogfood\dogfood_05s.jpg	4	-1	1	0	dogfood_05s.jpg	0	0.0	0	152.957709048991	153.007682680967	0.0499736319761723	75736
75.836	50	470	0	0	zucchini	1853	161	1	stimuli\zucchini\zucchini_10s.jpg	9	-1	1	0	zucchini_10s.jpg	0	0.0	0	153.057714827242	153.107691384968	0.0499765577260405	75836
75.936	50	471	0	0	bin	125	162	1	stimuli\bin\bin_06s.jpg	5	-1	1	0	bin_06s.jpg	0	0.0	0	153.157709634106	153.207695700403	0.0499860662966967	75936
76.036	50	472	0	0	hovercraft	808	163	1	stimuli\hovercraft\hovercraft_03s.jpg	2	-1	1	0	hovercraft_03s.jpg	0	0.0	0	153.257686399098	153.307697090146	0.0500106910476461	76036
76.136	50	473	0	0	peanut_butter	1132	164	1	stimuli\peanut_butter\peanut_butter_11s.jpg	10	-1	1	0	peanut_butter_11s.jpg	0	0.0	0	153.357719240244	153.40769677318198	0.0499775329371914	76136
76.236	50	474	0	0	rolling_pin	1328	165	1	stimuli\rolling_pin\rolling_pin_10s.jpg	9	-1	1	0	rolling_pin_10s.jpg	0	0.0	0	153.457719654718	153.507702551433	0.0499828967149369	76236
76.336	50	475	0	0	tambourine	1619	166	1	stimuli\tambourine\tambourine_10s.jpg	9	-1	1	0	tambourine_10s.jpg	0	0.0	0	153.557725189195	153.607705160219	0.0499799710232764	76336
76.436	50	476	0	0	carriage	276	167	1	stimuli\carriage\carriage_05s.jpg	4	-1	1	0	carriage_05s.jpg	0	0.0	0	153.657726091275	153.707705818524	0.0499797272495925	76436
76.536	50	477	0	0	cuckoo_clock	456	168	1	stimuli\cuckoo_clock\cuckoo_clock_05s.jpg	4	-1	1	0	cuckoo_clock_05s.jpg	0	0.0	0	153.757732113358	153.807710133959	0.0499780206009746	76536
76.636	50	478	0	0	tag	1616	169	1	stimuli\tag\tag_07s.jpg	6	-1	1	0	tag_07s.jpg	0	0.0	0	153.857730577351	153.907711767475	0.0499811901245266	76636
76.736	50	479	0	0	doll	499	170	1	stimuli\doll\doll_05s.jpg	4	-1	1	0	doll_05s.jpg	0	0.0	0	153.95773172326201	154.007712913386	0.0499811901245266	76736
76.836	50	480	0	0	water_cooler	1788	171	1	stimuli\water_cooler\water_cooler_01b.jpg	0	-1	1	0	water_cooler_01b.jpg	0	0.0	0	154.057736526302	154.107719179243	0.049982652941253	76836
76.936	50	481	0	0	cup	460	172	1	stimuli\cup\cup_06s.jpg	5	-1	1	0	cup_06s.jpg	0	0.0	0	154.157740841736	154.207719837548	0.0499789958121255	76936
77.036	50	482	0	0	peeler	1138	173	1	stimuli\peeler\peeler_02s.jpg	1	-1	1	0	peeler_02s.jpg	0	0.0	0	154.257740524772	154.30772659106898	0.0499860662966967	77036
77.136	50	483	0	0	coil	384	174	1	stimuli\coil\coil_11s.jpg	10	-1	1	0	coil_11s.jpg	0	0.0	0	154.357746303082	154.407723836019	0.0499775329371914	77136
77.236	50	484	0	0	wine	1823	175	1	stimuli\wine\wine_10s.jpg	9	-1	1	0	wine_10s.jpg	0	0.0	0	154.457747205161	154.507728639059	0.0499814338982105	77236
77.336	50	485	0	0	worm	1836	176	1	stimuli\worm\worm_09n.jpg	8	-1	1	0	worm_09n.jpg	0	0.0	0	154.557753227244	154.607733198325	0.0499799710814841	77336
77.436	50	486	0	0	nest	1056	177	1	stimuli\nest\nest_03s.jpg	2	-1	1	0	nest_03s.jpg	0	0.0	0	154.657751691237	154.70773580705298	0.0499841158161871	77436
77.536	50	487	0	0	splinter	1516	178	1	stimuli\splinter\splinter_01b.jpg	0	-1	1	0	splinter_01b.jpg	0	0.0	0	154.757753568585	154.80773427110398	0.0499807025189511	77536
77.636	50	488	0	0	lemonade	915	179	1	stimuli\lemonade\lemonade_05s.jpg	4	-1	1	0	lemonade_05s.jpg	0	0.0	0	154.857755202102	154.907739805523	0.0499846034217626	77636
77.736	50	489	0	0	ottoman	1086	180	1	stimuli\ottoman\ottoman_06s.jpg	5	-1	1	0	ottoman_06s.jpg	0	0.0	0	154.957760736579	155.00774534000098	0.0499846034217626	77736
77.836	50	490	0	0	hash	756	181	1	stimuli\hash\hash_04s.jpg	3	-1	1	0	hash_04s.jpg	0	0.0	0	155.057763589139	155.107747217349	0.0499836282106116	77836
77.936	50	491	0	0	arrow	38	182	1	stimuli\arrow\arrow_11s.jpg	10	-1	1	0	arrow_11s.jpg	0	0.0	0	155.157770098886	155.207747388049	0.0499772891635075	77936
78.037	50	492	0	0	chute	342	183	1	stimuli\chute\chute_12s.jpg	11	-1	1	0	chute_12s.jpg	0	0.0	0	155.25777246383998	155.307748290128	0.0499758262885734	78037
78.136	50	493	0	0	lava	903	184	1	stimuli\lava\lava_06s.jpg	5	-1	1	0	lava_06s.jpg	0	0.0	0	155.357772390707	155.407750655082	0.0499782643746585	78136
78.237	50	494	0	0	chariot	309	185	1	stimuli\chariot\chariot_04s.jpg	3	-1	1	0	chariot_04s.jpg	0	0.0	0	155.457776706142	155.507754970517	0.0499782643746585	78237
78.337	50	495	0	0	dough	513	186	1	stimuli\dough\dough_12s.jpg	11	-1	1	1	dough_12s.jpg	0	0.0	0	155.557775170135	155.607758310682	0.0499831405468285	78337
78.437	50	496	0	0	cocoon	376	187	1	stimuli\cocoon\cocoon_08s.jpg	7	-1	1	0	cocoon_08s.jpg	0	0.0	0	155.65778387413602	155.70776189467898	0.0499780205427669	78437
78.537	50	497	0	0	soap	1487	188	1	stimuli\soap\soap_10s.jpg	9	-1	1	0	soap_10s.jpg	0	0.0	0	155.75778331333998	155.807766210113	0.0499828967731446	78537
78.637	50	498	0	0	toy	1694	189	1	stimuli\toy\toy_12s.jpg	11	-1	1	0	toy_12s.jpg	1	0.34190990118077	1	155.857788847818	155.907764917938	0.04997607012046499	78637
78.737	50	499	0	0	pacifier	1093	190	1	stimuli\pacifier\pacifier_05s.jpg	4	-1	1	0	pacifier_05s.jpg	0	0.0	0	155.957786336599	156.00776923337298	0.0499828967731446	78737
78.837	50	500	0	0	moose	1018	191	1	stimuli\moose\moose_09s.jpg	8	-1	1	0	moose_09s.jpg	0	0.0	0	156.057790164428	156.107774036413	0.0499838719842955	78837
78.937	50	501	0	0	saffron	1345	192	1	stimuli\saffron\saffron_03s.jpg	2	-1	1	0	saffron_03s.jpg	0	0.0	0	156.157790822675	156.207778108015	0.0499872853397392	78937
79.037	50	502	0	0	coop	404	193	1	stimuli\coop\coop_09s.jpg	8	-1	1	0	coop_09s.jpg	0	0.0	0	156.2578026962	156.30777949775802	0.049976801557932	79037
79.137	50	503	0	0	handlebar	749	194	1	stimuli\handlebar\handlebar_03s.jpg	2	-1	1	0	handlebar_03s.jpg	0	0.0	0	156.357798965939	156.407778936962	0.0499799710232764	79137
79.237	50	504	0	0	leotard	918	195	1	stimuli\leotard\leotard_12s.jpg	11	-1	1	0	leotard_12s.jpg	0	0.0	0	156.457798892807	156.50778447144	0.0499855786329135	79237
79.337	50	505	0	0	peacock	1130	196	1	stimuli\peacock\peacock_08s.jpg	7	-1	1	0	peacock_08s.jpg	0	0.0	0	156.557804183452	156.607786836394	0.049982652941253	79337
79.437	50	506	0	0	panda	1105	197	1	stimuli\panda\panda_02s.jpg	1	-1	1	0	panda_02s.jpg	0	0.0	0	156.65780825505502	156.70778846991	0.049980214855167994	79437
79.537	50	507	0	0	pepper_mill	1151	198	1	stimuli\pepper_mill\pepper_mill_10s.jpg	9	-1	1	0	pepper_mill_10s.jpg	0	0.0	0	156.757809157134	156.807789128216	0.0499799710814841	79537
79.637	50	508	0	0	pulpit	1251	199	1	stimuli\pulpit\pulpit_04s.jpg	3	-1	1	0	pulpit_04s.jpg	0	0.0	0	156.857809815439	156.907789786521	0.0499799710814841	79637
79.737	50	509	0	0	loveseat	947	200	1	stimuli\loveseat\loveseat_07s.jpg	6	-1	1	0	loveseat_07s.jpg	0	0.0	0	156.957813643268	157.007797515253	0.0499838719842955	79737
79.837	50	510	0	0	dolly	501	201	1	stimuli\dolly\dolly_05s.jpg	4	-1	1	0	dolly_05s.jpg	0	0.0	0	157.05781673966	157.107795979246	0.0499792395858094	79837
79.937	50	511	0	0	crossbow	444	202	1	stimuli\crossbow\crossbow_03s.jpg	2	-1	1	0	crossbow_03s.jpg	0	0.0	0	157.15782105503598	157.20780200132901	0.0499809462926351	79937
80.037	50	512	0	0	tricycle	1711	203	1	stimuli\tricycle\tricycle_08s.jpg	7	-1	1	0	tricycle_08s.jpg	0	0.0	0	157.257822932384	157.307806560595	0.0499836282106116	80037
80.137	50	513	0	0	cord	407	204	1	stimuli\cord\cord_03s.jpg	2	-1	1	0	cord_03s.jpg	0	0.0	0	157.35783114878	157.407802830334	0.0499716815538704	80137
80.237	50	514	0	0	egg	546	205	1	stimuli\egg\egg_03s.jpg	2	-1	1	0	egg_03s.jpg	0	0.0	0	157.45782595564398	157.507809827628	0.0499838719842955	80237
80.337	50	515	0	0	fountain_pen	637	206	1	stimuli\fountain_pen\fountain_pen_01b.jpg	0	-1	1	0	fountain_pen_01b.jpg	0	0.0	0	157.55783246533198	157.607811948808	0.0499794834759086	80337
80.437	50	516	0	0	mole	1014	207	1	stimuli\mole\mole_12s.jpg	11	-1	1	0	mole_12s.jpg	0	0.0	0	157.65783409884898	157.70781406993	0.0499799710814841	80437
80.537	50	517	0	0	tiara	1655	208	1	stimuli\tiara\tiara_11s.jpg	10	-1	1	0	tiara_11s.jpg	0	0.0	0	157.757835000986	157.807819360576	0.04998435958987099	80537
80.637	50	518	0	0	bookshelf	167	209	1	stimuli\bookshelf\bookshelf_06s.jpg	5	-1	1	0	bookshelf_06s.jpg	0	0.0	0	157.857839072589	157.90782001888098	0.0499809462926351	80637
80.737	50	519	0	0	bowler_hat	178	210	1	stimuli\bowler_hat\bowler_hat_12s.jpg	11	-1	1	0	bowler_hat_12s.jpg	0	0.0	0	157.957843144191	158.007821652398	0.049978508206550004	80737
80.837	50	520	0	0	curry	464	211	1	stimuli\curry\curry_11s.jpg	10	-1	1	0	curry_11s.jpg	0	0.0	0	158.057843314891	158.107822066871	0.0499787519802339	80837
80.937	50	521	0	0	raincoat	1279	212	1	stimuli\raincoat\raincoat_07s.jpg	6	-1	1	0	raincoat_07s.jpg	0	0.0	0	158.157843973138	158.207826869912	0.0499828967731446	80937
81.037	50	522	0	0	timer	1661	213	1	stimuli\timer\timer_05s.jpg	4	-1	1	0	timer_05s.jpg	0	0.0	0	158.25784950761602	158.307830210135	0.0499807025189511	81037
81.137	50	523	0	0	aloe	14	214	1	stimuli\aloe\aloe_01b.jpg	0	-1	1	0	aloe_01b.jpg	0	0.0	0	158.357847971609	158.407833062694	0.0499850910855457	81137
81.237	50	524	0	0	bear	105	215	1	stimuli\bear\bear_07s.jpg	6	-1	1	0	bear_07s.jpg	0	0.0	0	158.457856188004	158.50783640286002	0.049980214855167994	81237
81.337	50	525	0	0	lamb_chop	890	216	1	stimuli\lamb_chop\lamb_chop_04s.jpg	3	-1	1	0	lamb_chop_04s.jpg	0	0.0	0	158.55785879679	158.60783706116501	0.0499782643746585	81337
81.437	50	526	0	0	earring	540	217	1	stimuli\earring\earring_12s.jpg	11	-1	1	0	earring_12s.jpg	0	0.0	0	158.657857016951	158.707841620373	0.0499846034217626	81437
81.537	50	527	0	0	leash	907	218	1	stimuli\leash\leash_04s.jpg	3	-1	1	0	leash_04s.jpg	0	0.0	0	158.757865720952	158.807846179639	0.0499804586870596	81537
81.637	50	528	0	0	crown	448	219	1	stimuli\crown\crown_05n.jpg	4	-1	1	0	crown_05n.jpg	0	0.0	0	158.857853944937	158.907845862675	0.0499919177382253	81637
81.737	50	529	0	0	stilt	1555	220	1	stimuli\stilt\stilt_09s.jpg	8	-1	1	0	stilt_09s.jpg	0	0.0	0	158.957864843251	159.007849446672	0.0499846034217626	81737
81.837	50	530	0	0	pine_tree	1181	221	1	stimuli\pine_tree\pine_tree_09s.jpg	8	-1	1	0	pine_tree_09s.jpg	0	0.0	0	159.057871109166	159.107848642103	0.0499775329371914	81837
81.937	50	531	0	0	mop	1019	222	1	stimuli\mop\mop_09s.jpg	8	-1	1	0	mop_09s.jpg	0	0.0	0	159.157871767413	159.20785368897498	0.0499819215619937	81937
82.037	50	532	0	0	quill	1263	223	1	stimuli\quill\quill_06s.jpg	5	-1	1	0	quill_06s.jpg	0	0.0	0	159.257874376199	159.307860198664	0.0499858224648051	82037
82.137	50	533	0	0	zebra	1851	224	1	stimuli\zebra\zebra_07s.jpg	6	-1	1	0	zebra_07s.jpg	0	0.0	0	159.357880885887	159.407858662657	0.049977776769083	82137
82.237	50	534	0	0	peach	1129	225	1	stimuli\peach\peach_01b.jpg	0	-1	1	0	peach_01b.jpg	0	0.0	0	159.457884226111	159.507860783837	0.0499765577260405	82237
82.337	50	535	0	0	magnifier	957	226	1	stimuli\magnifier\magnifier_04s.jpg	3	-1	1	0	magnifier_04s.jpg	0	0.0	0	159.557881471061	159.607861929748	0.0499804586870596	82337
82.437	50	536	0	0	lab_coat	885	227	1	stimuli\lab_coat\lab_coat_10s.jpg	9	-1	1	0	lab_coat_10s.jpg	0	0.0	0	159.65788432361998	159.707868927042	0.0499846034217626	82437
82.537	50	537	0	0	crepe	440	228	1	stimuli\crepe\crepe_11s.jpg	10	-1	1	0	crepe_11s.jpg	0	0.0	0	159.757890589535	159.807871048222	0.0499804586870596	82537
82.637	50	538	0	0	ferry	580	229	1	stimuli\ferry\ferry_06s.jpg	5	-1	1	0	ferry_06s.jpg	0	0.0	0	159.85789197922	159.907869755989	0.049977776769083	82637
82.737	50	539	0	0	jumpsuit	859	230	1	stimuli\jumpsuit\jumpsuit_08s.jpg	7	-1	1	0	jumpsuit_08s.jpg	0	0.0	0	159.957901902264	160.007877728553	0.0499758262885734	82737
82.837	50	540	0	0	mouse2	1027	231	1	stimuli\mouse2\mouse2_01s.jpg	0	-1	1	0	mouse2_01s.jpg	0	0.0	0	160.057900122483	160.10787570494	0.0499755824566819	82837
82.937	50	541	0	0	fox	638	232	1	stimuli\fox\fox_09s.jpg	8	-1	1	0	fox_09s.jpg	0	0.0	0	160.157901756	160.207885627984	0.0499838719842955	82937
83.037	50	542	0	0	peg	1139	233	1	stimuli\peg\peg_03s.jpg	2	-1	1	0	peg_03s.jpg	0	0.0	0	160.257902414305	160.307883116766	0.0499807024607435	83037
83.137	50	543	0	0	mousetrap	1029	234	1	stimuli\mousetrap\mousetrap_12s.jpg	11	-1	1	0	mousetrap_12s.jpg	0	0.0	0	160.357907217345	160.40789084555598	0.0499836282106116	83137
83.237	50	544	0	0	book	165	235	1	stimuli\book\book_11s.jpg	10	-1	1	0	book_11s.jpg	0	0.0	0	160.457909338467	160.507889553322	0.049980214855167994	83237
83.337	50	545	0	0	mirror	1005	236	1	stimuli\mirror\mirror_02s.jpg	1	-1	1	0	mirror_02s.jpg	0	0.0	0	160.557918530074	160.607892649714	0.0499741196399555	83337
83.437	50	546	0	0	burner	224	237	1	stimuli\burner\burner_05s.jpg	4	-1	1	0	burner_05s.jpg	0	0.0	0	160.657918944547	160.707893795625	0.0499748510774225	83437
83.537	50	547	0	0	turtle	1736	238	1	stimuli\turtle\turtle_11s.jpg	10	-1	1	0	turtle_11s.jpg	0	0.0	0	160.757913507638	160.807894210098	0.0499807024607435	83537
83.637	50	548	0	0	marmalade	976	239	1	stimuli\marmalade\marmalade_04s.jpg	3	-1	1	0	marmalade_04s.jpg	0	0.0	0	160.857920261158	160.907901695056	0.0499814338982105	83637
83.737	50	549	0	0	piggy_bank	1172	240	1	stimuli\piggy_bank\piggy_bank_09s.jpg	8	-1	1	0	piggy_bank_09s.jpg	0	0.0	0	160.957923845155	161.007904547616	0.0499807024607435	83737
83.837	50	550	0	0	taillight	1617	241	1	stimuli\taillight\taillight_11s.jpg	10	-1	1	0	taillight_11s.jpg	0	0.0	0	161.057924503461	161.107905693527	0.049981190066318994	83837
83.937	50	551	0	0	fishing_pole	603	242	1	stimuli\fishing_pole\fishing_pole_10s.jpg	9	-1	1	0	fishing_pole_10s.jpg	0	0.0	0	161.157926380751	161.207906108	0.0499797272495925	83937
84.037	50	552	0	0	sim_card	1446	243	1	stimuli\sim_card\sim_card_07s.jpg	6	-1	1	0	sim_card_07s.jpg	0	0.0	0	161.25793118379102	161.307908229122	0.049977045331616	84037
84.137	50	553	0	0	stir_fry	1557	244	1	stimuli\stir_fry\stir_fry_01s.jpg	0	-1	1	0	stir_fry_01s.jpg	0	0.0	0	161.357928916404	161.407911813178	0.0499828967731446	84137
84.237	50	554	0	0	french_horn	642	245	1	stimuli\french_horn\french_horn_12s.jpg	11	-1	1	0	french_horn_12s.jpg	0	0.0	0	161.457932988007	161.507918810472	0.0499858224648051	84237
84.337	50	555	0	0	brooch	202	246	1	stimuli\brooch\brooch_11s.jpg	10	-1	1	0	brooch_11s.jpg	0	0.0	0	161.557938034879	161.607916543027	0.0499785081483424	84337
84.437	50	556	0	0	canister	259	247	1	stimuli\canister\canister_02s.jpg	1	-1	1	0	canister_02s.jpg	0	0.0	0	161.657938205521	161.707918907981	0.0499807024607435	84437
84.537	50	557	0	0	bagel	55	248	1	stimuli\bagel\bagel_09s.jpg	8	-1	1	0	bagel_09s.jpg	0	0.0	0	161.757942520955	161.807924198685	0.0499816777301021	84537
84.637	50	558	0	0	phone_booth	1162	249	1	stimuli\phone_booth\phone_booth_08s.jpg	7	-1	1	0	phone_booth_08s.jpg	0	0.0	0	161.857943666866	161.90792875789302	0.0499850910273381	84637
84.737	50	559	0	0	pepperoni	1153	250	1	stimuli\pepperoni\pepperoni_04s.jpg	3	-1	1	0	pepperoni_04s.jpg	0	0.0	0	161.95794481277701	162.007928197156	0.0499833843787201	84737
84.837	50	560	0	0	apron	33	251	1	stimuli\apron\apron_05s.jpg	4	-1	1	0	apron_05s.jpg	0	0.0	0	162.05795132246598	162.107930074504	0.0499787520384416	84837
84.937	50	561	0	0	hydrant	814	252	1	stimuli\hydrant\hydrant_07s.jpg	6	-1	1	0	hydrant_07s.jpg	0	0.0	0	162.15795563790002	162.207939753716	0.0499841158161871	84937
85.037	50	562	0	0	blowgun	147	253	1	stimuli\blowgun\blowgun_11s.jpg	10	-1	1	0	blowgun_11s.jpg	0	0.0	0	162.257957027643	162.307936511061	0.049979483417701	85037
85.137	50	563	0	0	bucket	209	254	1	stimuli\bucket\bucket_12s.jpg	11	-1	1	0	bucket_12s.jpg	0	0.0	0	162.357959636371	162.40794180170602	0.0499821653356776	85137
85.237	50	564	0	0	lipstick	936	255	1	stimuli\lipstick\lipstick_06s.jpg	5	-1	1	0	lipstick_06s.jpg	0	0.0	0	162.457960050844	162.50794124096902	0.0499811901245266	85237
85.337	50	565	0	0	icepick	822	256	1	stimuli\icepick\icepick_11s.jpg	10	-1	1	0	icepick_11s.jpg	0	0.0	0	162.557964122447	162.607945800177	0.0499816777301021	85337
85.437	50	566	0	0	badger	53	257	1	stimuli\badger\badger_01b.jpg	0	-1	1	0	badger_01b.jpg	0	0.0	0	162.657965024584	162.70794889656798	0.0499838719842955	85437
85.537	50	567	0	0	knob	882	258	1	stimuli\knob\knob_08s.jpg	7	-1	1	0	knob_08s.jpg	0	0.0	0	162.757971290499	162.807950042479	0.0499787519802339	85537
85.637	50	568	0	0	reindeer	1301	259	1	stimuli\reindeer\reindeer_07s.jpg	6	-1	1	0	reindeer_07s.jpg	0	0.0	0	162.85798413923501	162.907950944558	0.0499668053234927	85637
85.737	50	569	0	0	knitting	880	260	1	stimuli\knitting\knitting_05s.jpg	4	-1	1	0	knitting_05s.jpg	0	0.0	0	162.957975045138	163.007956235262	0.0499811901245266	85737
85.837	50	570	0	0	rack2	1269	261	1	stimuli\rack2\rack2_07s.jpg	6	-1	1	1	rack2_07s.jpg	0	0.0	0	163.05797741009198	163.107958600216	0.0499811901245266	85837
85.937	50	571	0	0	spider_web	1514	262	1	stimuli\spider_web\spider_web_05s.jpg	4	-1	1	0	spider_web_05s.jpg	0	0.0	0	163.157980994089	163.20795974606898	0.0499787519802339	85937
86.037	50	572	0	0	jacket	836	263	1	stimuli\jacket\jacket_06s.jpg	5	-1	1	0	jacket_06s.jpg	0	0.0	0	163.257984821917	163.307967231027	0.0499824091093615	86037
86.137	50	573	0	0	chopsticks	339	264	1	stimuli\chopsticks\chopsticks_03s.jpg	2	-1	1	0	chopsticks_03s.jpg	0	0.0	0	163.357984017348	163.40796569501998	0.0499816776718944	86137
86.237	50	574	0	0	abacus	1	265	1	stimuli\abacus\abacus_03s.jpg	2	-1	1	0	abacus_03s.jpg	1	0.441908852779306	1	163.457988088951	163.507969522849	0.0499814338982105	86237
86.337	50	575	0	0	reel	1299	266	1	stimuli\reel\reel_02s.jpg	1	-1	1	0	reel_02s.jpg	0	0.0	0	163.557992648159	163.607971643971	0.0499789958121255	86337
86.437	50	576	0	0	wire_cutters	1829	267	1	stimuli\wire_cutters\wire_cutters_05s.jpg	4	-1	1	0	wire_cutters_05s.jpg	0	0.0	0	163.65799379407	163.7079754718	0.0499816777301021	86437
86.537	50	577	0	0	mail	959	268	1	stimuli\mail\mail_07s.jpg	6	-1	1	0	mail_07s.jpg	0	0.0	0	163.757997134293	163.80797515483602	0.0499780205427669	86537
86.637	50	578	0	0	eraser	559	269	1	stimuli\eraser\eraser_10s.jpg	9	-1	1	0	eraser_10s.jpg	0	0.0	0	163.857997061161	163.90798507788	0.0499880167189986	86637
86.737	50	579	0	0	shoehorn	1425	270	1	stimuli\shoehorn\shoehorn_05s.jpg	4	-1	1	0	shoehorn_05s.jpg	0	0.0	0	163.95800259563802	164.007981591451	0.0499789958121255	86737
86.837	50	580	0	0	briefcase	200	271	1	stimuli\briefcase\briefcase_07s.jpg	6	-1	1	0	briefcase_07s.jpg	0	0.0	0	164.058002278674	164.107984687784	0.0499824091093615	86837
86.937	50	581	0	0	acorn	3	272	1	stimuli\acorn\acorn_10s.jpg	9	-1	1	0	acorn_10s.jpg	0	0.0	0	164.158004887402	164.207988271781	0.0499833843787201	86937
87.037	50	582	0	0	ravioli	1289	273	1	stimuli\ravioli\ravioli_11s.jpg	10	-1	1	0	ravioli_11s.jpg	0	0.0	0	164.258008471399	164.30799039296102	0.0499819215619937	87037
87.137	50	583	0	0	mud	1033	274	1	stimuli\mud\mud_02s.jpg	1	-1	1	0	mud_02s.jpg	0	0.0	0	164.358014249709	164.407993976958	0.0499797272495925	87137
87.237	50	584	0	0	cardboard	272	275	1	stimuli\cardboard\cardboard_05s.jpg	4	-1	1	0	cardboard_05s.jpg	0	0.0	0	164.458015395619	164.507994391432	0.0499789958121255	87237
87.337	50	585	0	0	sandpaper	1356	276	1	stimuli\sandpaper\sandpaper_07s.jpg	6	-1	1	0	sandpaper_07s.jpg	0	0.0	0	164.55801654153	164.60800090112	0.04998435958987099	87337
87.437	50	586	0	0	cannon	260	277	1	stimuli\cannon\cannon_03n.jpg	2	-1	1	0	cannon_03n.jpg	0	0.0	0	164.65801719977802	164.707982542284	0.0499653425067663	87437
87.537	50	587	0	0	meat_grinder	988	278	1	stimuli\meat_grinder\meat_grinder_07s.jpg	6	-1	1	0	meat_grinder_07s.jpg	0	0.0	0	164.75802517239902	164.808004899591	0.0499797271913849	87537
87.637	50	588	0	0	shelf	1416	279	1	stimuli\shelf\shelf_02s.jpg	1	-1	1	0	shelf_02s.jpg	0	0.0	0	164.858028268733	164.908007020771	0.0499787520384416	87637
87.737	50	589	0	0	hairnet	736	280	1	stimuli\hairnet\hairnet_10s.jpg	9	-1	1	0	hairnet_10s.jpg	0	0.0	0	164.958034534648	165.008010360936	0.0499758262885734	87737
87.837	50	590	0	0	iron	832	281	1	stimuli\iron\iron_08s.jpg	7	-1	1	0	iron_08s.jpg	0	0.0	0	165.05803031678101	165.108012969722	0.049982652941253	87837
87.937	50	591	0	0	tea	1631	282	1	stimuli\tea\tea_11s.jpg	10	-1	1	0	tea_11s.jpg	0	0.0	0	165.158033900778	165.208014359407	0.0499804586288519	87937
88.037	50	592	0	0	joystick	852	283	1	stimuli\joystick\joystick_11s.jpg	10	-1	1	0	joystick_11s.jpg	0	0.0	0	165.258040410466	165.308017943404	0.0499775329371914	88037
88.137	50	593	0	0	sarcophagus	1358	284	1	stimuli\sarcophagus\sarcophagus_11s.jpg	10	-1	1	0	sarcophagus_11s.jpg	0	0.0	0	165.358039118291	165.408017870272	0.0499787519802339	88137
88.237	50	594	0	0	quesadilla	1261	285	1	stimuli\quesadilla\quesadilla_12s.jpg	11	-1	1	0	quesadilla_12s.jpg	0	0.0	0	165.45804148324498	165.508020479057	0.0499789958121255	88237
88.337	50	595	0	0	cigarette	344	286	1	stimuli\cigarette\cigarette_02s.jpg	1	-1	1	0	cigarette_02s.jpg	0	0.0	0	165.55804360436701	165.608027964015	0.0499843596480787	88337
88.437	50	596	0	0	mailbox	960	287	1	stimuli\mailbox\mailbox_10s.jpg	9	-1	1	0	mailbox_10s.jpg	0	0.0	0	165.658044750278	165.708031791786	0.0499870415078476	88437
88.537	50	597	0	0	saxophone	1368	288	1	stimuli\saxophone\saxophone_03s.jpg	2	-1	1	0	saxophone_03s.jpg	0	0.0	0	165.75804955331802	165.808036107221	0.0499865539022721	88537
88.637	50	598	0	0	ruby	1338	289	1	stimuli\ruby\ruby_01b.jpg	0	-1	1	0	ruby_01b.jpg	0	0.0	0	165.858071666851	165.90803188929598	0.049960222444497	88637
88.737	50	599	0	0	dagger	469	290	1	stimuli\dagger\dagger_06s.jpg	5	-1	1	0	dagger_06s.jpg	0	0.0	0	165.958055258438	166.008035229519	0.0499799710814841	88737
88.837	50	600	0	0	cow	426	291	1	stimuli\cow\cow_06n.jpg	5	-1	1	1	cow_06n.jpg	0	0.0	0	166.058058354829	166.108037594473	0.0499792396440171	88837
88.937	50	601	0	0	vent	1758	292	1	stimuli\vent\vent_12s.jpg	11	-1	1	0	vent_12s.jpg	0	0.0	0	166.15805876930202	166.20804117847	0.0499824091675691	88937
89.037	50	602	0	0	rifle	1311	293	1	stimuli\rifle\rifle_08s.jpg	7	-1	1	0	rifle_08s.jpg	0	0.0	0	166.25806552282302	166.308043787256	0.0499782644328661	89037
89.137	50	603	0	0	gargoyle	657	294	1	stimuli\gargoyle\gargoyle_09s.jpg	8	-1	1	0	gargoyle_09s.jpg	0	0.0	0	166.358065937296	166.408052003593	0.0499860662966967	89137
89.237	50	604	0	0	penguin	1145	295	1	stimuli\penguin\penguin_10s.jpg	9	-1	1	0	penguin_10s.jpg	1	0.39213416934944706	1	166.45807561656702	166.50805168662902	0.0499760700622573	89237
89.337	50	605	0	0	windshield	1820	296	1	stimuli\windshield\windshield_05s.jpg	4	-1	1	0	windshield_05s.jpg	0	0.0	0	166.558070423431	166.608052101103	0.0499816776718944	89337
89.437	50	606	0	0	kite	874	297	1	stimuli\kite\kite_05s.jpg	4	-1	1	0	kite_05s.jpg	0	0.0	0	166.658072300721	166.708040812751	0.0499685120303184	89437
89.537	50	607	0	0	nail_clippers	1047	298	1	stimuli\nail_clippers\nail_clippers_10s.jpg	9	-1	1	0	nail_clippers_10s.jpg	0	0.0	0	166.758074665675	166.80806853389402	0.0499938682187349	89537
89.637	50	608	0	0	diving_board	494	299	1	stimuli\diving_board\diving_board_03s.jpg	2	-1	1	0	diving_board_03s.jpg	0	0.0	0	166.858077762066	166.908061634109	0.0499838720425032	89637
89.737	50	609	0	0	onion	1077	300	1	stimuli\onion\onion_03n.jpg	2	-1	1	0	onion_03n.jpg	0	0.0	0	166.958084271813	167.008065705711	0.0499814338982105	89737
89.837	50	610	0	0	sequin	1404	301	1	stimuli\sequin\sequin_02s.jpg	1	-1	1	0	sequin_02s.jpg	0	0.0	0	167.05808297958	167.108063682099	0.0499807025189511	89837
89.937	50	611	0	0	nightshirt	1058	302	1	stimuli\nightshirt\nightshirt_02s.jpg	1	-1	1	0	nightshirt_02s.jpg	0	0.0	0	167.158086075971	167.20806629082702	0.049980214855167994	89937
90.037	50	612	0	0	jack	835	303	1	stimuli\jack\jack_08s.jpg	7	-1	1	0	jack_08s.jpg	0	0.0	0	167.258092585718	167.308071337698	0.0499787519802339	90037
90.137	50	613	0	0	tablet	1610	304	1	stimuli\tablet\tablet_10s.jpg	9	-1	1	0	tablet_10s.jpg	0	0.0	0	167.35809275636	167.408074677864	0.049981921503786	90137
90.237	50	614	0	0	pinwheel	1185	305	1	stimuli\pinwheel\pinwheel_08s.jpg	7	-1	1	0	pinwheel_08s.jpg	0	0.0	0	167.458097071794	167.50807923713	0.0499821653356776	90237
90.337	50	615	0	0	memory_stick	995	306	1	stimuli\memory_stick\memory_stick_01b.jpg	0	-1	1	0	memory_stick_01b.jpg	0	0.0	0	167.55809724243602	167.608078920166	0.0499816777301021	90337
