onset	duration	eventnumber	blocksequencenumber	isteststim	object	objectnumber	presentationnumber	sequencenumber	stim	stimnumber	teststimnumber	withinsequencenumber	istarget	stimname	response	rt	correct	time_stimon	time_stimoff	stimdur	sample
117.4	50	0	0	0	rolling_pin	1328	0	0	stimuli\rolling_pin\rolling_pin_01b.jpg	0	-1	0	0	rolling_pin_01b.jpg	0	0.0	0	104.611766742411	104.661748456685	0.0499817142735992	117400
117.5	50	1	0	0	mat	982	1	0	stimuli\mat\mat_05s.jpg	4	-1	0	0	mat_05s.jpg	0	0.0	0	104.711772106224	104.761753332878	0.0499812266534718	117500
117.6	50	2	0	0	showerhead	1436	2	0	stimuli\showerhead\showerhead_09s.jpg	8	-1	0	0	showerhead_09s.jpg	0	0.0	0	104.81176942431601	104.86175284525999	0.0499834209440451	117600
117.7	50	3	0	0	eyeliner	567	3	0	stimuli\eyeliner\eyeliner_09s.jpg	8	-1	0	0	eyeliner_09s.jpg	0	0.0	0	104.911793561474	104.961759184309	0.0499656228348613	117700
117.8	50	4	0	0	filing_cabinet	585	4	0	stimuli\filing_cabinet\filing_cabinet_06s.jpg	5	-1	0	0	filing_cabinet_06s.jpg	0	0.0	0	105.011782346228	105.06176186621799	0.0499795199903019	117800
117.9	50	5	0	0	cookie_sheet	402	5	0	stimuli\cookie_sheet\cookie_sheet_01b.jpg	0	-1	0	0	cookie_sheet_01b.jpg	0	0.0	0	105.111784296707	105.162227786499	0.0504434897920873	117900
118.0	50	6	0	0	boar	151	6	0	stimuli\boar\boar_09s.jpg	8	-1	0	0	boar_09s.jpg	0	0.0	0	105.21176820526699	105.261775763367	0.050007558100333	118000
118.1	50	7	0	0	biscuit	133	7	0	stimuli\biscuit\biscuit_04s.jpg	3	-1	0	0	biscuit_04s.jpg	0	0.0	0	105.311792098615	105.361767473838	0.0499753752228571	118100
118.2	50	8	0	0	drink	521	8	0	stimuli\drink\drink_01b.jpg	0	-1	0	0	drink_01b.jpg	0	0.0	0	105.41178527194599	105.461779664322	0.0499943923750834	118200
118.3	50	9	0	0	tostada	1688	9	0	stimuli\tostada\tostada_03s.jpg	2	-1	0	0	tostada_03s.jpg	0	0.0	0	105.51180087576401	105.561776007176	0.0499751314127934	118300
118.4	50	10	0	0	panda	1105	10	0	stimuli\panda\panda_04s.jpg	3	-1	0	0	panda_04s.jpg	0	0.0	0	105.611794049095	105.661776982415	0.0499829333202797	118400
118.5	50	11	0	0	go-kart	682	11	0	stimuli\go-kart\go-kart_02s.jpg	1	-1	0	0	go-kart_02s.jpg	0	0.0	0	105.711799900524	105.761779664324	0.0499797638003656	118500
118.6	50	12	0	0	dreidel	517	12	0	stimuli\dreidel\dreidel_01b.jpg	0	-1	0	0	dreidel_01b.jpg	0	0.0	0	105.81179746242901	105.86178088337	0.0499834209404071	118600
118.7	50	13	0	0	headband	762	13	0	stimuli\headband\headband_05s.jpg	4	-1	0	0	headband_05s.jpg	0	0.0	0	105.911808190056	105.96179185480699	0.0499836647504708	118700
118.8	50	14	0	0	tree	1708	14	0	stimuli\tree\tree_12s.jpg	11	-1	0	0	tree_12s.jpg	0	0.0	0	106.011801363384	106.061785759564	0.0499843961806619	118800
118.9	50	15	0	0	toe	1668	15	0	stimuli\toe\toe_11s.jpg	10	-1	0	0	toe_11s.jpg	0	0.0	0	106.11180916529301	106.161790148137	0.0499809828434081	118900
119.0	50	16	0	0	iguana	825	16	0	stimuli\iguana\iguana_07s.jpg	6	-1	0	0	iguana_07s.jpg	0	0.0	0	106.21180745862499	106.261795024333	0.0499875657078519	119000
119.1	50	17	0	0	coconut	375	17	0	stimuli\coconut\coconut_11s.jpg	10	-1	0	0	coconut_11s.jpg	0	0.0	0	106.31181428529499	106.361794049095	0.0499797638003656	119100
119.2	50	18	0	0	doorbell	507	18	0	stimuli\doorbell\doorbell_11s.jpg	10	-1	0	0	doorbell_11s.jpg	0	0.0	0	106.4118118472	106.461800631954	0.0499887847545324	119200
119.3	50	19	0	0	dishwasher	491	19	0	stimuli\dishwasher\dishwasher_08s.jpg	7	-1	0	0	dishwasher_08s.jpg	0	0.0	0	106.51182257482701	106.56180453291	0.0499819580836629	119300
119.4	50	20	0	0	mirror	1005	20	0	stimuli\mirror\mirror_03s.jpg	2	-1	0	0	mirror_03s.jpg	0	0.0	0	106.61182208720501	106.661806483386	0.0499843961806619	119400
119.5	50	21	0	0	top_hat	1682	21	0	stimuli\top_hat\top_hat_01b.jpg	0	-1	0	0	top_hat_01b.jpg	0	0.0	0	106.711826475781	106.761810384342	0.0499839085605345	119500
119.6	50	22	0	0	blowfish	146	22	0	stimuli\blowfish\blowfish_12s.jpg	11	-1	0	0	blowfish_12s.jpg	0	0.0	0	106.81182306244601	106.861807702437	0.0499846399907256	119600
119.7	50	23	0	0	soldering_iron	1494	23	0	stimuli\soldering_iron\soldering_iron_11s.jpg	10	-1	0	0	soldering_iron_11s.jpg	0	0.0	0	106.911831108162	106.961810140532	0.0499790323701745	119700
119.8	50	24	0	0	revolving_door	1305	24	0	stimuli\revolving_door\revolving_door_07s.jpg	6	-1	0	0	revolving_door_07s.jpg	0	0.0	0	107.01183037673401	107.061815260535	0.0499848838007892	119800
119.9	50	25	0	0	piglet	1173	25	0	stimuli\piglet\piglet_06s.jpg	5	-1	0	0	piglet_06s.jpg	0	0.0	0	107.11183330245001	107.161818430061	0.0499851276108529	119900
120.0	50	26	0	0	rudder	1339	26	0	stimuli\rudder\rudder_02s.jpg	1	-1	0	0	rudder_02s.jpg	0	0.0	0	107.211841348169	107.26182281863301	0.0499814704635355	120000
120.1	50	27	0	0	bone	161	27	0	stimuli\bone\bone_11s.jpg	10	-1	0	0	bone_11s.jpg	0	0.0	0	107.31184305483801	107.36182623196899	0.0499831771303434	120100
120.2	50	28	0	0	pulley	1250	28	0	stimuli\pulley\pulley_08s.jpg	7	-1	0	0	pulley_08s.jpg	0	0.0	0	107.411838910073	107.46183135197501	0.0499924419018498	120200
120.3	50	29	0	0	trophy	1717	29	0	stimuli\trophy\trophy_12s.jpg	11	-1	0	0	trophy_12s.jpg	0	0.0	0	107.51184890626999	107.56183110816299	0.0499822018937266	120300
120.4	50	30	0	0	keyboard	870	30	0	stimuli\keyboard\keyboard_04s.jpg	3	-1	0	0	keyboard_04s.jpg	0	0.0	0	107.611849637698	107.66183135197201	0.0499817142735992	120400
120.5	50	31	0	0	sunroof	1586	31	0	stimuli\sunroof\sunroof_03s.jpg	2	-1	0	0	sunroof_03s.jpg	0	0.0	0	107.71185841484801	107.76183452149799	0.0499761066494102	120500
120.6	50	32	0	0	juicer1	855	32	0	stimuli\juicer1\juicer1_04s.jpg	3	-1	0	0	juicer1_04s.jpg	0	0.0	0	107.811854513893	107.861838910074	0.0499843961806619	120600
120.7	50	33	0	0	spinach	1515	33	0	stimuli\spinach\spinach_01b.jpg	0	-1	0	0	spinach_01b.jpg	0	0.0	0	107.911854270082	107.96183720340599	0.0499829333239177	120700
120.8	50	34	0	0	beaver	107	34	0	stimuli\beaver\beaver_12s.jpg	11	-1	0	0	beaver_12s.jpg	0	0.0	0	108.011855489131	108.06184378626499	0.049988297134405	120800
120.9	50	35	0	0	sail	1346	35	0	stimuli\sail\sail_05s.jpg	4	-1	0	0	sail_05s.jpg	0	0.0	0	108.11186182818301	108.161858658656	0.0499968304720824	120900
121.0	50	36	0	0	latch	900	36	0	stimuli\latch\latch_08s.jpg	7	-1	0	0	latch_08s.jpg	0	0.0	0	108.211867923423	108.261845005316	0.049977081893303	121000
121.1	50	37	0	0	grinder	716	37	0	stimuli\grinder\grinder_05s.jpg	4	-1	0	0	grinder_05s.jpg	0	0.0	0	108.31186572913799	108.361845736745	0.0499800076067913	121100
121.2	50	38	0	0	ant	24	38	0	stimuli\ant\ant_03s.jpg	2	-1	0	0	ant_03s.jpg	0	0.0	0	108.411867679613	108.461855732941	0.0499880533279793	121200
121.3	50	39	0	0	turban	1730	39	0	stimuli\turban\turban_06s.jpg	5	-1	0	0	turban_06s.jpg	0	0.0	0	108.511875969143	108.56185646437001	0.0499804952269187	121300
121.4	50	40	0	0	toilet_paper	1671	40	0	stimuli\toilet_paper\toilet_paper_06s.jpg	5	-1	0	0	toilet_paper_06s.jpg	0	0.0	0	108.611869873901	108.661825500541	0.0499556266404397	121400
121.5	50	41	0	0	roadsweeper	1316	41	0	stimuli\roadsweeper\roadsweeper_02s.jpg	1	-1	0	0	roadsweeper_02s.jpg	0	0.0	0	108.71188279581499	108.761862315801	0.0499795199866639	121500
121.6	50	42	0	0	mashed_potato	979	42	0	stimuli\mashed_potato\mashed_potato_02s.jpg	1	-1	0	0	mashed_potato_02s.jpg	0	0.0	0	108.811878163429	108.861859877707	0.0499817142772372	121600
121.7	50	43	0	0	dress	518	43	0	stimuli\dress\dress_07s.jpg	6	-1	0	0	dress_07s.jpg	0	0.0	0	108.911887184389	108.961868411043	0.0499812266534718	121700
121.8	50	44	0	0	cashew	281	44	0	stimuli\cashew\cashew_07s.jpg	6	-1	0	0	cashew_07s.jpg	0	0.0	0	109.01188547772101	109.061863047231	0.0499775695097924	121800
121.9	50	45	0	0	punch1	1254	45	0	stimuli\punch1\punch1_11s.jpg	10	-1	0	1	punch1_11s.jpg	0	0.0	0	109.111887184386	109.16187596914499	0.0499887847581704	121900
122.0	50	46	0	0	gondola	691	46	0	stimuli\gondola\gondola_11s.jpg	10	-1	0	0	gondola_11s.jpg	0	0.0	0	109.211888891055	109.261875237713	0.0499863466575334	122000
122.1	50	47	0	0	pug	1249	47	0	stimuli\pug\pug_11s.jpg	10	-1	0	0	pug_11s.jpg	0	0.0	0	109.311894254868	109.361878163429	0.0499839085605345	122100
122.2	50	48	0	0	root	1331	48	0	stimuli\root\root_12s.jpg	11	-1	0	0	root_12s.jpg	0	0.0	0	109.41190181296801	109.461886452958	0.0499846399907256	122200
122.3	50	49	0	0	curtain	465	49	0	stimuli\curtain\curtain_07s.jpg	6	-1	0	0	curtain_07s.jpg	0	0.0	0	109.51190571392401	109.561881089146	0.0499753752228571	122300
122.4	50	50	0	0	sidecar	1442	50	0	stimuli\sidecar\sidecar_03s.jpg	2	-1	0	0	sidecar_03s.jpg	0	0.0	0	109.611897912015	109.661885721529	0.0499878095142776	122400
122.5	50	51	0	0	wrapping_paper	1838	51	0	stimuli\wrapping_paper\wrapping_paper_11s.jpg	10	-1	0	0	wrapping_paper_11s.jpg	0	0.0	0	109.711910346308	109.76189206058201	0.0499817142735992	122500
122.6	50	52	0	0	oilcan	1073	52	0	stimuli\oilcan\oilcan_07s.jpg	6	-1	0	0	oilcan_07s.jpg	0	0.0	0	109.81190717678001	109.86189108534401	0.0499839085641725	122600
122.7	50	53	0	0	cauliflower	288	53	0	stimuli\cauliflower\cauliflower_03s.jpg	2	-1	0	0	cauliflower_03s.jpg	0	0.0	0	109.91191644155	109.961895230106	0.0499787885564729	122700
122.8	50	54	0	0	brooch	202	54	0	stimuli\brooch\brooch_03s.jpg	2	-1	0	0	brooch_03s.jpg	0	0.0	0	110.01189620534599	110.061890597724	0.0499943923787214	122800
122.9	50	55	0	0	hot-water_bottle	802	55	0	stimuli\hot-water_bottle\hot-water_bottle_09s.jpg	8	-1	0	0	hot-water_bottle_09s.jpg	0	0.0	0	110.11191692916701	110.161895961537	0.0499790323701745	122900
123.0	50	56	0	0	stapler	1539	56	0	stimuli\stapler\stapler_01b.jpg	0	-1	0	0	stapler_01b.jpg	0	0.0	0	110.211913272022	110.261898887253	0.0499856152309803	123000
123.1	50	57	0	0	flour	618	57	0	stimuli\flour\flour_10s.jpg	9	-1	0	0	flour_10s.jpg	0	0.0	0	110.311922049172	110.361902544399	0.0499804952269187	123100
123.2	50	58	0	0	stalagmite	1534	58	0	stimuli\stalagmite\stalagmite_08s.jpg	7	-1	0	0	stalagmite_08s.jpg	0	0.0	0	110.411928388221	110.461910346308	0.0499819580873009	123200
123.3	50	59	0	0	tattoo	1629	59	0	stimuli\tattoo\tattoo_10s.jpg	9	-1	0	0	tattoo_10s.jpg	0	0.0	0	110.51193009488999	110.561904982493	0.0499748876027297	123300
123.4	50	60	0	0	barrel	76	60	0	stimuli\barrel\barrel_12s.jpg	11	-1	0	0	barrel_12s.jpg	0	0.0	0	110.611925462508	110.661909858689	0.0499843961806619	123400
123.5	50	61	0	0	sushi	1588	61	0	stimuli\sushi\sushi_06s.jpg	5	-1	0	0	sushi_06s.jpg	0	0.0	0	110.71193155774701	110.76190449487301	0.0499729371258582	123500
123.6	50	62	0	0	scuba	1392	62	0	stimuli\scuba\scuba_04s.jpg	3	-1	0	0	scuba_04s.jpg	0	0.0	0	110.81192936346301	110.86191497869	0.0499856152273424	123600
123.7	50	63	0	0	ottoman	1086	63	0	stimuli\ottoman\ottoman_12s.jpg	11	-1	0	0	ottoman_12s.jpg	0	0.0	0	110.911939359659	110.961921805363	0.0499824457037903	123700
123.8	50	64	0	0	bouquet	173	64	0	stimuli\bouquet\bouquet_03s.jpg	2	-1	0	0	bouquet_03s.jpg	0	0.0	0	111.011936190131	111.06192034250499	0.0499841523742361	123800
123.9	50	65	0	0	cinnamon	348	65	0	stimuli\cinnamon\cinnamon_10s.jpg	9	-1	0	0	cinnamon_10s.jpg	0	0.0	0	111.111945942521	111.161925462507	0.0499795199866639	123900
124.0	50	66	0	0	locker	941	66	0	stimuli\locker\locker_06s.jpg	5	-1	0	0	locker_06s.jpg	0	0.0	0	111.21193814060801	111.26191644154801	0.0499783009399835	124000
124.1	50	67	0	0	skateboard	1449	67	0	stimuli\skateboard\skateboard_05s.jpg	4	-1	0	0	skateboard_05s.jpg	0	0.0	0	111.31193887203699	111.36191595393	0.049977081893303	124100
124.2	50	68	0	0	checkbook	310	68	0	stimuli\checkbook\checkbook_05s.jpg	4	-1	0	0	checkbook_05s.jpg	0	0.0	0	111.41194106632601	111.461929363461	0.049988297134405	124200
124.3	50	69	0	0	easel	542	69	0	stimuli\easel\easel_12s.jpg	11	-1	0	0	easel_12s.jpg	0	0.0	0	111.51194082251499	111.561922049172	0.0499812266571098	124300
124.4	50	70	0	0	panther	1106	70	0	stimuli\panther\panther_06s.jpg	5	-1	0	0	panther_06s.jpg	0	0.0	0	111.611941310137	111.661923999647	0.049982689510216	124400
124.5	50	71	0	0	beanie	104	71	0	stimuli\beanie\beanie_11s.jpg	10	-1	0	0	beanie_11s.jpg	0	0.0	0	111.711946186329	111.76192814441299	0.0499819580836629	124500
124.6	50	72	0	0	cleaver	354	72	0	stimuli\cleaver\cleaver_02s.jpg	1	-1	0	0	cleaver_02s.jpg	0	0.0	0	111.81194447966101	111.861929851082	0.0499853714209166	124600
124.7	50	73	0	0	wheat	1805	73	0	stimuli\wheat\wheat_05n.jpg	4	-1	0	0	wheat_05n.jpg	0	0.0	0	111.911952037761	111.961938628228	0.0499865904675971	124700
124.8	50	74	0	0	apple	30	74	0	stimuli\apple\apple_09s.jpg	8	-1	0	0	apple_09s.jpg	0	0.0	0	112.011954475856	112.06193814061001	0.0499836647541088	124800
124.9	50	75	0	0	lifesaver	925	75	0	stimuli\lifesaver\lifesaver_06s.jpg	5	-1	0	0	lifesaver_06s.jpg	0	0.0	0	112.111957157766	112.161941310136	0.0499841523705982	124900
125.0	50	76	0	0	swimming_pool	1596	76	0	stimuli\swimming_pool\swimming_pool_01b.jpg	0	-1	0	0	swimming_pool_01b.jpg	0	0.0	0	112.211954232047	112.261941066325	0.0499868342776608	125000
125.1	50	77	0	0	chariot	309	77	0	stimuli\chariot\chariot_05s.jpg	4	-1	0	0	chariot_05s.jpg	0	0.0	0	112.311963009197	112.36194374823401	0.0499807390369824	125100
125.2	50	78	0	0	gravel	709	78	0	stimuli\gravel\gravel_10s.jpg	9	-1	0	0	gravel_10s.jpg	0	0.0	0	112.411961302529	112.461951062523	0.0499897599947872	125200
125.3	50	79	0	0	pillbox	1175	79	0	stimuli\pillbox\pillbox_02s.jpg	1	-1	0	0	pillbox_02s.jpg	0	0.0	0	112.511971542535	112.561952281572	0.0499807390369824	125300
125.4	50	80	0	0	pillow	1176	80	0	stimuli\pillow\pillow_07s.jpg	6	-1	0	0	pillow_07s.jpg	0	0.0	0	112.61196837301	112.661958620622	0.0499902476112766	125400
125.5	50	81	0	0	jigsaw_puzzle	851	81	0	stimuli\jigsaw_puzzle\jigsaw_puzzle_05s.jpg	4	-1	0	0	jigsaw_puzzle_05s.jpg	0	0.0	0	112.71197446825	112.76195398824	0.0499795199903019	125500
125.6	50	82	0	0	yarn	1846	82	0	stimuli\yarn\yarn_06s.jpg	5	-1	0	0	yarn_06s.jpg	0	0.0	0	112.81197324920099	112.86195813300199	0.0499848838007892	125600
125.7	50	83	0	0	football_helmet	630	83	0	stimuli\football_helmet\football_helmet_12s.jpg	11	-1	0	0	football_helmet_12s.jpg	0	0.0	0	112.911983976828	112.96196105871799	0.049977081889664994	125700
125.8	50	84	0	0	lanyard	896	84	0	stimuli\lanyard\lanyard_05s.jpg	4	-1	0	0	lanyard_05s.jpg	0	0.0	0	113.011981294923	113.061962765387	0.0499814704635355	125800
125.9	50	85	0	0	toilet	1670	85	0	stimuli\toilet\toilet_10s.jpg	9	-1	0	0	toilet_10s.jpg	0	0.0	0	113.111983245399	113.161983489208	0.0500002438093361	125900
126.0	50	86	0	0	magnifier	957	86	0	stimuli\magnifier\magnifier_06s.jpg	5	-1	0	0	magnifier_06s.jpg	0	0.0	0	113.21198105111	113.261966666341	0.0499856152309803	126000
126.1	50	87	0	0	guinea_pig	722	87	0	stimuli\guinea_pig\guinea_pig_01b.jpg	0	-1	0	0	guinea_pig_01b.jpg	0	0.0	0	113.31198836540399	113.361971054914	0.049982689510216	126100
126.2	50	88	0	0	anteater	25	88	0	stimuli\anteater\anteater_05s.jpg	4	-1	0	0	anteater_05s.jpg	0	0.0	0	113.411989828259	113.461979832064	0.0499900038048509	126200
126.3	50	89	0	0	ham	739	89	0	stimuli\ham\ham_12s.jpg	11	-1	0	0	ham_12s.jpg	0	0.0	0	113.511994948265	113.561974712062	0.0499797637967276	126300
126.4	50	90	0	0	chick	321	90	0	stimuli\chick\chick_10s.jpg	9	-1	0	0	chick_10s.jpg	0	0.0	0	113.611992266357	113.661983489208	0.0499912228515313	126400
126.5	50	91	0	0	switch	1600	91	0	stimuli\switch\switch_03s.jpg	2	-1	0	0	switch_03s.jpg	0	0.0	0	113.71200348160299	113.761986658734	0.0499831771303434	126500
126.6	50	92	0	0	easter_egg	543	92	0	stimuli\easter_egg\easter_egg_06s.jpg	5	-1	0	0	easter_egg_06s.jpg	0	0.0	0	113.81199909302799	113.861987146352	0.0499880533243413	126600
126.7	50	93	0	0	clothespin	363	93	0	stimuli\clothespin\clothespin_05s.jpg	4	-1	0	0	clothespin_05s.jpg	0	0.0	0	113.912009576845	113.961989828262	0.049980251416855005	126700
126.8	50	94	0	0	meatball	989	94	0	stimuli\meatball\meatball_04s.jpg	3	-1	0	0	meatball_04s.jpg	0	0.0	0	114.01200884541299	114.061988609214	0.0499797638003656	126800
126.9	50	95	0	0	gyroscope	731	95	0	stimuli\gyroscope\gyroscope_08s.jpg	7	-1	0	0	gyroscope_08s.jpg	0	0.0	0	114.112012502559	114.16199153492902	0.0499790323701745	126900
127.0	50	96	0	0	net	1057	96	0	stimuli\net\net_11s.jpg	10	-1	0	0	net_11s.jpg	0	0.0	0	114.212017622562	114.26199836159901	0.0499807390369824	127000
127.1	50	97	0	0	bin	125	97	0	stimuli\bin\bin_03s.jpg	2	-1	0	0	bin_03s.jpg	0	0.0	0	114.312022011138	114.362014453036	0.0499924418982118	127100
127.2	50	98	0	0	nightstand	1059	98	0	stimuli\nightstand\nightstand_02s.jpg	1	-1	0	0	nightstand_02s.jpg	0	0.0	0	114.41204785496299	114.46200421303001	0.0499563580669928	127200
127.3	50	99	0	0	doorknocker	510	99	0	stimuli\doorknocker\doorknocker_10s.jpg	9	-1	0	0	doorknocker_10s.jpg	0	0.0	0	114.512019816852	114.562001774935	0.0499819580836629	127300
127.4	50	100	0	0	water_cooler	1788	100	0	stimuli\water_cooler\water_cooler_12s.jpg	11	-1	0	0	water_cooler_12s.jpg	0	0.0	0	114.61202006066002	114.66201030827101	0.0499902476112766	127400
127.5	50	101	0	0	coverall	425	101	0	stimuli\coverall\coverall_11s.jpg	10	-1	0	0	coverall_11s.jpg	0	0.0	0	114.71203225114401	114.76201177113	0.0499795199866639	127500
127.6	50	102	0	0	straightjacket	1565	102	0	stimuli\straightjacket\straightjacket_02s.jpg	1	-1	0	0	straightjacket_02s.jpg	0	0.0	0	114.812031275906	114.86201396541901	0.049982689513854005	127600
127.7	50	103	0	0	spareribs	1505	103	0	stimuli\spareribs\spareribs_06s.jpg	5	-1	0	0	spareribs_06s.jpg	0	0.0	0	114.91203005685699	114.962014209228	0.0499841523705982	127700
127.8	50	104	0	0	milk	1001	104	0	stimuli\milk\milk_11s.jpg	10	-1	0	0	milk_11s.jpg	0	0.0	0	115.012030788286	115.062027862568	0.0499970742821461	127800
127.9	50	105	0	0	peeler	1138	105	0	stimuli\peeler\peeler_11s.jpg	10	-1	0	0	peeler_11s.jpg	0	0.0	0	115.11204102829299	115.162032007334	0.0499909790414677	127900
128.0	50	106	0	0	bracelet1	187	106	0	stimuli\bracelet1\bracelet1_09s.jpg	8	-1	0	0	bracelet1_09s.jpg	0	0.0	0	115.21204663591601	115.26203200733299	0.0499853714172787	128000
128.1	50	107	0	0	goblet	685	107	0	stimuli\goblet\goblet_10s.jpg	9	-1	0	0	goblet_10s.jpg	0	0.0	0	115.31204297877	115.362035176859	0.0499921980881481	128100
128.2	50	108	0	0	gong	692	108	0	stimuli\gong\gong_01b.jpg	0	-1	0	0	gong_01b.jpg	0	0.0	0	115.412042978769	115.46203834638399	0.0499953676153382	128200
128.3	50	109	0	0	stove2	1564	109	0	stimuli\stove2\stove2_10s.jpg	9	-1	0	0	stove2_10s.jpg	0	0.0	0	115.512089790227	115.562043222577	0.0499534323498665	128300
128.4	50	110	0	0	bell_pepper	117	110	0	stimuli\bell_pepper\bell_pepper_08s.jpg	7	-1	0	0	bell_pepper_08s.jpg	0	0.0	0	115.61204907401002	115.662035908288	0.0499868342776608	128400
128.5	50	111	0	0	hotdog	805	111	0	stimuli\hotdog\hotdog_01b.jpg	0	-1	0	0	hotdog_01b.jpg	0	0.0	0	115.71207247973899	115.76204566067499	0.0499731809359218	128500
128.6	50	112	0	0	grapefruit	703	112	0	stimuli\grapefruit\grapefruit_03s.jpg	2	-1	0	0	grapefruit_03s.jpg	0	0.0	0	115.81206492164	115.862047367344	0.0499824457037903	128600
128.7	50	113	0	0	remote_control	1302	113	0	stimuli\remote_control\remote_control_10s.jpg	9	-1	0	0	remote_control_10s.jpg	0	0.0	0	115.912070285453	115.96205736353998	0.0499870780877245	128700
128.8	50	114	0	0	cable	234	114	0	stimuli\cable\cable_11s.jpg	10	-1	0	0	cable_11s.jpg	0	0.0	0	116.012077599742	116.062058826399	0.0499812266571098	128800
128.9	50	115	0	0	wax_paper	1796	115	0	stimuli\wax_paper\wax_paper_07s.jpg	6	-1	0	0	wax_paper_07s.jpg	0	0.0	0	116.11208223212499	116.162066872115	0.0499846399907256	128900
129.0	50	116	0	0	drill	520	116	0	stimuli\drill\drill_04s.jpg	3	-1	0	0	drill_04s.jpg	0	0.0	0	116.212078574979	116.26206467783001	0.0499861028511077	129000
129.1	50	117	0	0	taxi	1630	117	0	stimuli\taxi\taxi_10s.jpg	9	-1	0	0	taxi_10s.jpg	0	0.0	0	116.312080769269	116.36205004925101	0.0499692799821787	129100
129.2	50	118	0	0	urinal	1748	118	0	stimuli\urinal\urinal_05s.jpg	4	-1	0	0	urinal_05s.jpg	0	0.0	0	116.412085889271	116.462064434021	0.0499785447500471	129200
129.3	50	119	0	0	shoe_polish	1424	119	0	stimuli\shoe_polish\shoe_polish_12s.jpg	11	-1	0	0	shoe_polish_12s.jpg	0	0.0	0	116.51208735213001	116.56206540926	0.0499780571299198	129300
129.4	50	120	0	0	shears	1412	120	0	stimuli\shears\shears_10s.jpg	9	-1	0	0	shears_10s.jpg	0	0.0	0	116.612073454977	116.66207711212299	0.0500036571465898	129400
129.5	50	121	0	0	boomerang	168	121	0	stimuli\boomerang\boomerang_03s.jpg	2	-1	0	0	boomerang_03s.jpg	0	0.0	0	116.71209539784799	116.762070773071	0.0499753752228571	129500
129.6	50	122	0	0	flip_flop	614	122	0	stimuli\flip_flop\flip_flop_05s.jpg	4	-1	0	0	flip_flop_05s.jpg	0	0.0	0	116.812087839749	116.862075161647	0.0499873218977882	129600
129.7	50	123	0	0	lip_gloss	935	123	0	stimuli\lip_gloss\lip_gloss_05s.jpg	4	-1	0	0	lip_gloss_05s.jpg	0	0.0	0	116.91209856737301	116.96208369498301	0.0499851276108529	129700
129.8	50	124	0	0	lumber	949	124	0	stimuli\lumber\lumber_10s.jpg	9	-1	0	0	lumber_10s.jpg	0	0.0	0	117.012095154038	117.06208198831499	0.0499868342776608	129800
129.9	50	125	0	0	file1	583	125	0	stimuli\file1\file1_05s.jpg	4	-1	0	0	file1_05s.jpg	0	0.0	0	117.112101736901	117.162088083558	0.0499863466575334	129900
130.0	50	126	0	0	napkin_ring	1051	126	0	stimuli\napkin_ring\napkin_ring_02s.jpg	1	-1	0	0	napkin_ring_02s.jpg	0	0.0	0	117.21209442260799	117.262088571177	0.0499941485686577	130000
130.1	50	127	0	0	calculator	240	127	0	stimuli\calculator\calculator_05s.jpg	4	-1	0	0	calculator_05s.jpg	0	0.0	0	117.31211027023899	117.362087839749	0.0499775695097924	130100
130.2	50	128	0	0	playing_card	1199	128	0	stimuli\playing_card\playing_card_09s.jpg	8	-1	0	0	playing_card_09s.jpg	0	0.0	0	117.412096373086	117.46208125688601	0.0499848838007892	130200
130.3	50	129	0	0	baby	46	129	0	stimuli\baby\baby_12s.jpg	11	-1	0	0	baby_12s.jpg	0	0.0	0	117.512113195953	117.562084182602	0.0499709866489866	130300
130.4	50	130	0	0	tuning_fork	1728	130	0	stimuli\tuning_fork\tuning_fork_07s.jpg	6	-1	0	1	tuning_fork_07s.jpg	0	0.0	0	117.612111001668	117.66209807975599	0.0499870780877245	130400
130.5	50	131	0	0	cross	443	131	0	stimuli\cross\cross_09s.jpg	8	-1	0	0	cross_09s.jpg	0	0.0	0	117.71212489881901	117.762102712139	0.0499778133198561	130500
130.6	50	132	0	0	sundial	1583	132	0	stimuli\sundial\sundial_07s.jpg	6	-1	0	0	sundial_07s.jpg	0	0.0	0	117.81212392358101	117.862106856905	0.0499829333239177	130600
130.7	50	133	0	0	mascara	978	133	0	stimuli\mascara\mascara_02s.jpg	1	-1	0	0	mascara_02s.jpg	0	0.0	0	117.912127580727	117.962105394046	0.0499778133198561	130700
130.8	50	134	0	0	pecan	1135	134	0	stimuli\pecan\pecan_02s.jpg	1	-1	0	0	pecan_02s.jpg	0	0.0	0	118.012123192151	118.062106856902	0.0499836647504708	130800
130.9	50	135	0	0	papaya	1111	135	0	stimuli\papaya\papaya_02s.jpg	1	-1	0	0	papaya_02s.jpg	0	0.0	0	118.112130506441	118.16210807595101	0.0499775695097924	130900
131.0	50	136	0	0	seismograph	1403	136	0	stimuli\seismograph\seismograph_07s.jpg	6	-1	0	0	seismograph_07s.jpg	0	0.0	0	118.212129287393	118.262115146434	0.049985859041044	131000
131.1	50	137	0	0	camera2	247	137	0	stimuli\camera2\camera2_03s.jpg	2	-1	0	0	camera2_03s.jpg	1	0.692214913349744	1	118.312136114062	118.36211807214899	0.0499819580873009	131100
131.2	50	138	0	0	airbag	7	138	0	stimuli\airbag\airbag_10s.jpg	9	-1	0	0	airbag_10s.jpg	0	0.0	0	118.412226811262	118.462116365481	0.0498895542186801	131200
131.3	50	139	0	0	pole	1213	139	0	stimuli\pole\pole_04s.jpg	3	-1	0	0	pole_04s.jpg	0	0.0	0	118.51214001502	118.56212148548401	0.0499814704635355	131300
131.4	50	140	0	0	umbrella	1743	140	0	stimuli\umbrella\umbrella_10s.jpg	9	-1	0	0	umbrella_10s.jpg	0	0.0	0	118.612141721685	118.662130018824	0.049988297138043	131400
131.5	50	141	0	0	headdress	763	141	0	stimuli\headdress\headdress_11s.jpg	10	-1	0	0	headdress_11s.jpg	0	0.0	0	118.712147573118	118.762125874058	0.0499783009399835	131500
131.6	50	142	0	0	teabag	1632	142	0	stimuli\teabag\teabag_04s.jpg	3	-1	0	0	teabag_04s.jpg	0	0.0	0	118.812140990256	118.862145622639	0.0500046323832066	131600
131.7	50	143	0	0	column	388	143	0	stimuli\column\column_11s.jpg	10	-1	0	0	column_11s.jpg	0	0.0	0	118.91215342455	118.962130994059	0.0499775695097924	131700
131.8	50	144	0	0	flagpole	606	144	0	stimuli\flagpole\flagpole_03s.jpg	2	-1	0	0	flagpole_03s.jpg	0	0.0	0	119.012149279784	119.062135626446	0.0499863466611714	131800
131.9	50	145	0	0	shovel	1432	145	0	stimuli\shovel\shovel_08n.jpg	7	-1	0	0	shovel_08n.jpg	0	0.0	0	119.11215635026699	119.16214489121201	0.0499885409444687	131900
132.0	50	146	0	0	puppet	1257	146	0	stimuli\puppet\puppet_11s.jpg	10	-1	0	0	puppet_11s.jpg	0	0.0	0	119.21214927978501	119.26214294073401	0.0499936609485303	132000
132.1	50	147	0	0	breathalyzer	198	147	0	stimuli\breathalyzer\breathalyzer_06s.jpg	5	-1	0	0	breathalyzer_06s.jpg	0	0.0	0	119.31215244931101	119.36215756931401	0.05000512000333401	132100
132.2	50	148	0	0	banana_split	65	148	0	stimuli\banana_split\banana_split_06s.jpg	5	-1	0	0	banana_split_06s.jpg	0	0.0	0	119.412166834081	119.462151474072	0.0499846399907256	132200
132.3	50	149	0	0	pepper_mill	1151	149	0	stimuli\pepper_mill\pepper_mill_11s.jpg	10	-1	0	0	pepper_mill_11s.jpg	0	0.0	0	119.51216927218	119.562151961691	0.049982689510216	132300
132.4	50	150	0	0	keg	866	150	0	stimuli\keg\keg_07s.jpg	6	-1	0	0	keg_07s.jpg	0	0.0	0	119.61216415217501	119.662149767406	0.0499856152309803	132400
132.5	50	151	0	0	jar	840	151	0	stimuli\jar\jar_01s.jpg	0	-1	0	0	jar_01s.jpg	0	0.0	0	119.712172685515	119.762165127413	0.0499924418982118	132500
132.6	50	152	0	0	squeegee	1527	152	0	stimuli\squeegee\squeegee_10s.jpg	9	-1	0	0	squeegee_10s.jpg	0	0.0	0	119.812177074087	119.86217634266	0.0499992685727193	132600
132.7	50	153	0	0	log	943	153	0	stimuli\log\log_08s.jpg	7	-1	0	0	log_08s.jpg	0	0.0	0	119.912172929326	119.962153424549	0.0499804952232807	132700
132.8	50	154	0	0	spatula	1508	154	0	stimuli\spatula\spatula_01b.jpg	0	-1	0	0	spatula_01b.jpg	0	0.0	0	120.01217024741699	120.06215488740801	0.0499846399907256	132800
132.9	50	155	0	0	trolley	1715	155	0	stimuli\trolley\trolley_12s.jpg	11	-1	0	0	trolley_12s.jpg	0	0.0	0	120.11216756551201	120.162155375026	0.0499878095142776	132900
133.0	50	156	0	0	coat_rack	370	156	0	stimuli\coat_rack\coat_rack_09s.jpg	8	-1	0	0	coat_rack_09s.jpg	0	0.0	0	120.212173660751	120.262152449312	0.0499787885601108	133000
133.1	50	157	0	0	guardrail	720	157	0	stimuli\guardrail\guardrail_01b.jpg	0	-1	0	0	guardrail_01b.jpg	0	0.0	0	120.312173904564	120.362146597879	0.0499726933157945	133100
133.2	50	158	0	0	spoon	1519	158	0	stimuli\spoon\spoon_07s.jpg	6	-1	0	0	spoon_07s.jpg	0	0.0	0	120.41219389695499	120.462164395987	0.0499704990324972	133200
133.3	50	159	0	0	appetizer	29	159	0	stimuli\appetizer\appetizer_08s.jpg	7	-1	0	0	appetizer_08s.jpg	0	0.0	0	120.51218268171199	120.562159519792	0.0499768380796013	133300
133.4	50	160	0	0	radar	1271	160	0	stimuli\radar\radar_09s.jpg	8	-1	0	0	radar_09s.jpg	0	0.0	0	120.612186338858	120.662170735039	0.0499843961806619	133400
133.5	50	161	0	0	comb	389	161	0	stimuli\comb\comb_11s.jpg	10	-1	0	0	comb_11s.jpg	0	0.0	0	120.712192434097	120.76217341694401	0.0499809828470461	133500
133.6	50	162	0	0	curry	464	162	0	stimuli\curry\curry_05s.jpg	4	-1	0	0	curry_05s.jpg	0	0.0	0	120.812206818868	120.86219926077	0.0499924419018498	133600
133.7	50	163	0	0	hip	780	163	0	stimuli\hip\hip_04s.jpg	3	-1	0	0	hip_04s.jpg	0	0.0	0	120.91220023600901	120.962173416945	0.0499731809359218	133700
133.8	50	164	0	0	compass	392	164	0	stimuli\compass\compass_11n.jpg	10	-1	0	0	compass_11n.jpg	0	0.0	0	121.01219121505	121.06217658647101	0.0499853714209166	133800
133.9	50	165	0	0	squid	1528	165	0	stimuli\squid\squid_07s.jpg	6	-1	0	0	squid_07s.jpg	0	0.0	0	121.11220462458	121.162185607427	0.0499809828470461	133900
134.0	50	166	0	0	gingerbread_man	674	166	0	stimuli\gingerbread_man\gingerbread_man_01b.jpg	0	-1	0	0	gingerbread_man_01b.jpg	0	0.0	0	121.212205112202	121.262187557906	0.0499824457037903	134000
134.1	50	167	0	0	hole	785	167	0	stimuli\hole\hole_07s.jpg	6	-1	0	0	hole_07s.jpg	0	0.0	0	121.312207794108	121.362184144567	0.0499763504594739	134100
134.2	50	168	0	0	bird	128	168	0	stimuli\bird\bird_12s.jpg	11	-1	0	0	bird_12s.jpg	0	0.0	0	121.412208525537	121.46218755790301	0.0499790323665366	134200
134.3	50	169	0	0	grasshopper	706	169	0	stimuli\grasshopper\grasshopper_10s.jpg	9	-1	0	1	grasshopper_10s.jpg	0	0.0	0	121.512207794109	121.56218682647498	0.0499790323665366	134300
134.4	50	170	0	0	bassoon	86	170	0	stimuli\bassoon\bassoon_12s.jpg	11	-1	0	0	bassoon_12s.jpg	0	0.0	0	121.612213645538	121.662197066482	0.0499834209440451	134400
134.5	50	171	0	0	worm	1836	171	0	stimuli\worm\worm_01b.jpg	0	-1	0	0	worm_01b.jpg	0	0.0	0	121.712216815064	121.76219462838301	0.0499778133198561	134500
134.6	50	172	0	0	torso	1685	172	0	stimuli\torso\torso_12s.jpg	11	-1	0	0	torso_12s.jpg	0	0.0	0	121.812246072226	121.862203893153	0.049957820927374996	134600
134.7	50	173	0	0	bomb	160	173	0	stimuli\bomb\bomb_06s.jpg	5	-1	0	0	bomb_06s.jpg	1	0.45667892216442896	1	121.91222559221201	121.962202674105	0.049977081893303	134700
134.8	50	174	0	0	fishing_pole	603	174	0	stimuli\fishing_pole\fishing_pole_06s.jpg	5	-1	0	0	fishing_pole_06s.jpg	0	0.0	0	122.01226777128599	122.062204136961	0.0499363656745118	134800
134.9	50	175	0	0	deer	476	175	0	stimuli\deer\deer_06s.jpg	5	-1	0	0	deer_06s.jpg	0	0.0	0	122.11222754269	122.16220633125	0.0499787885601108	134900
135.0	50	176	0	0	whip	1809	176	0	stimuli\whip\whip_03s.jpg	2	-1	0	0	whip_03s.jpg	0	0.0	0	122.212239001747	122.26220974458599	0.0499707428389229	135000
135.1	50	177	0	0	loom	946	177	0	stimuli\loom\loom_02s.jpg	1	-1	0	0	loom_02s.jpg	0	0.0	0	122.312230956028	122.362217058875	0.0499861028474697	135100
135.2	50	178	0	0	praying_mantis	1238	178	0	stimuli\praying_mantis\praying_mantis_07s.jpg	6	-1	0	0	praying_mantis_07s.jpg	0	0.0	0	122.41228337510599	122.46221413316002	0.0499307580539607	135200
135.3	50	179	0	0	marshmallow	977	179	0	stimuli\marshmallow\marshmallow_11s.jpg	10	-1	0	0	marshmallow_11s.jpg	0	0.0	0	122.512233394122	122.56221876554301	0.0499853714209166	135300
135.4	50	180	0	0	bucket	209	180	0	stimuli\bucket\bucket_12s.jpg	11	-1	0	0	bucket_12s.jpg	0	0.0	0	122.612298247495	122.66222047221201	0.0499222247162834	135400
135.5	50	181	0	0	tooth	1678	181	0	stimuli\tooth\tooth_02s.jpg	1	-1	0	0	tooth_02s.jpg	0	0.0	0	122.71224217126999	122.762221935067	0.0499797637967276	135500
135.6	50	182	0	0	pom-pom	1218	182	0	stimuli\pom-pom\pom-pom_05s.jpg	4	-1	0	0	pom-pom_05s.jpg	0	0.0	0	122.812245096986	122.86223071221701	0.0499856152309803	135600
135.7	50	183	0	0	harness	754	183	0	stimuli\harness\harness_05s.jpg	4	-1	0	0	harness_05s.jpg	0	0.0	0	122.91224631603501	122.962227786502	0.0499814704671735	135700
135.8	50	184	0	0	feather	574	184	0	stimuli\feather\feather_10s.jpg	9	-1	0	0	feather_10s.jpg	0	0.0	0	123.01224924175	123.06223046840799	0.0499812266571098	135800
135.9	50	185	0	0	bamboo	62	185	0	stimuli\bamboo\bamboo_07s.jpg	6	-1	0	0	bamboo_07s.jpg	0	0.0	0	123.112252655086	123.162242171271	0.0499895161847235	135900
136.0	50	186	0	0	salami	1349	186	0	stimuli\salami\salami_04s.jpg	3	-1	0	0	salami_04s.jpg	0	0.0	0	123.21226557700001	123.26224412174999	0.0499785447500471	136000
136.1	50	187	0	0	wood	1833	187	0	stimuli\wood\wood_04s.jpg	3	-1	0	0	wood_04s.jpg	0	0.0	0	123.312267771285	123.362255580803	0.0499878095179156	136100
136.2	50	188	0	0	chin	330	188	0	stimuli\chin\chin_01b.jpg	0	-1	0	0	chin_01b.jpg	0	0.0	0	123.41226411414	123.46225509318501	0.0499909790451056	136200
136.3	50	189	0	0	frame	639	189	0	stimuli\frame\frame_07s.jpg	6	-1	0	0	frame_07s.jpg	0	0.0	0	123.512263138902	123.56224217127199	0.0499790323701745	136300
136.4	50	190	0	0	padlock	1095	190	0	stimuli\padlock\padlock_07s.jpg	6	-1	0	0	padlock_07s.jpg	0	0.0	0	123.612277279863	123.662259725566	0.0499824457037903	136400
136.5	50	191	0	0	volleyball	1767	191	0	stimuli\volleyball\volleyball_11s.jpg	10	-1	0	0	volleyball_11s.jpg	0	0.0	0	123.712282887485	123.762261188425	0.0499783009399835	136500
136.6	50	192	0	0	cream_cheese	437	192	0	stimuli\cream_cheese\cream_cheese_03s.jpg	2	-1	0	0	cream_cheese_03s.jpg	0	0.0	0	123.812282399867	123.86226923414499	0.0499868342776608	136600
136.7	50	193	0	0	lantern	895	193	0	stimuli\lantern\lantern_10s.jpg	9	-1	0	0	lantern_10s.jpg	0	0.0	0	123.912278011292	123.96227215986099	0.0499941485686577	136700
136.8	50	194	0	0	thermos	1647	194	0	stimuli\thermos\thermos_04s.jpg	3	-1	0	0	thermos_04s.jpg	0	0.0	0	124.012292396063	124.062272159859	0.0499797637967276	136800
136.9	50	195	0	0	flypaper	622	195	0	stimuli\flypaper\flypaper_07s.jpg	6	-1	0	0	flypaper_07s.jpg	0	0.0	0	124.112290201778	124.16227337890801	0.0499831771303434	136900
137.0	50	196	0	0	scallion	1372	196	0	stimuli\scallion\scallion_06s.jpg	5	-1	0	0	scallion_06s.jpg	0	0.0	0	124.212280693198	124.2622731351	0.0499924419018498	137000
137.1	50	197	0	0	cornucopia	416	197	0	stimuli\cornucopia\cornucopia_12s.jpg	11	-1	0	0	cornucopia_12s.jpg	0	0.0	0	124.312298735116	124.362282399867	0.0499836647504708	137100
137.2	50	198	0	0	mustache	1043	198	0	stimuli\mustache\mustache_07s.jpg	6	-1	0	0	mustache_07s.jpg	0	0.0	0	124.412303367499	124.462284837962	0.0499814704635355	137200
137.3	50	199	0	0	charcoal	307	199	0	stimuli\charcoal\charcoal_06s.jpg	5	-1	0	0	charcoal_06s.jpg	0	0.0	0	124.51230604940399	124.562283862724	0.0499778133198561	137300
137.4	50	200	0	0	sloth	1471	200	0	stimuli\sloth\sloth_05s.jpg	4	-1	0	0	sloth_05s.jpg	0	0.0	0	124.612312388457	124.662290201777	0.0499778133198561	137400
137.5	50	201	0	0	slime	1465	201	0	stimuli\slime\slime_08s.jpg	7	-1	0	0	slime_08s.jpg	0	0.0	0	124.712310194169	124.762291420826	0.0499812266571098	137500
137.6	50	202	0	0	glove	680	202	0	stimuli\glove\glove_06s.jpg	5	-1	0	0	glove_06s.jpg	0	0.0	0	124.812310681787	124.862290445588	0.0499797638003656	137600
137.7	50	203	0	0	photograph	1164	203	0	stimuli\photograph\photograph_07s.jpg	6	-1	0	0	photograph_07s.jpg	0	0.0	0	124.91231531417401	124.962279961772	0.0499646475982445	137700
137.8	50	204	0	0	shelf	1416	204	0	stimuli\shelf\shelf_03s.jpg	2	-1	0	0	shelf_03s.jpg	0	0.0	0	125.012317996079	125.062294102732	0.0499761066530482	137800
137.9	50	205	0	0	belt	118	205	0	stimuli\belt\belt_07s.jpg	6	-1	0	0	belt_07s.jpg	0	0.0	0	125.11231263226699	125.162302392262	0.0499897599947872	137900
138.0	50	206	0	0	touchpad	1691	206	0	stimuli\touchpad\touchpad_06s.jpg	5	-1	0	0	touchpad_06s.jpg	0	0.0	0	125.21230629321501	125.262298003687	0.0499917104716587	138000
138.1	50	207	0	0	candy	255	207	0	stimuli\candy\candy_07s.jpg	6	-1	0	0	candy_07s.jpg	0	0.0	0	125.312320921796	125.36230873131399	0.0499878095179156	138100
138.2	50	208	0	0	makeup	961	208	0	stimuli\makeup\makeup_04s.jpg	3	-1	0	0	makeup_04s.jpg	0	0.0	0	125.41233043037201	125.46229459035	0.0499641599781171	138200
138.3	50	209	0	0	puck	1245	209	0	stimuli\puck\puck_01b.jpg	0	-1	0	0	puck_01b.jpg	0	0.0	0	125.51231604560199	125.562309706551	0.0499936609485303	138300
138.4	50	210	0	0	quad	1260	210	0	stimuli\quad\quad_10s.jpg	9	-1	0	0	quad_10s.jpg	0	0.0	0	125.612344815145	125.662312144646	0.0499673295016692	138400
138.5	50	211	0	0	terrarium	1644	211	0	stimuli\terrarium\terrarium_04s.jpg	3	-1	0	0	terrarium_04s.jpg	0	0.0	0	125.712339451329	125.762314095125	0.049974643796304	138500
138.6	50	212	0	0	wreath	1839	212	0	stimuli\wreath\wreath_04s.jpg	3	-1	0	0	wreath_04s.jpg	0	0.0	0	125.81234700942899	125.862322384652	0.0499753752228571	138600
138.7	50	213	0	0	bongo	162	213	0	stimuli\bongo\bongo_12s.jpg	11	-1	0	0	bongo_12s.jpg	0	0.0	0	125.912337500853	125.96230531797501	0.0499678171217965	138700
138.8	50	214	0	0	doll	499	214	0	stimuli\doll\doll_04s.jpg	3	-1	0	0	doll_04s.jpg	0	0.0	0	126.012344571333	126.06232433512899	0.0499797637967276	138800
138.9	50	215	0	0	ladybug	888	215	0	stimuli\ladybug\ladybug_08s.jpg	7	-1	0	0	ladybug_08s.jpg	0	0.0	0	126.11234335228399	126.162335550376	0.0499921980917861	138900
139.0	50	216	0	0	furnace	651	216	0	stimuli\furnace\furnace_06s.jpg	5	-1	0	0	furnace_06s.jpg	0	0.0	0	126.21238114278499	126.26232994275401	0.0499487999695702	139000
139.1	50	217	0	0	food_processor	627	217	0	stimuli\food_processor\food_processor_06s.jpg	5	-1	0	0	food_processor_06s.jpg	0	0.0	0	126.312338232281	126.362336525614	0.0499982933324645	139100
139.2	50	218	0	0	bathmat	89	218	0	stimuli\bathmat\bathmat_03s.jpg	2	-1	0	0	bathmat_03s.jpg	0	0.0	0	126.41234067038	126.46233359989901	0.0499929295183392	139200
139.3	50	219	0	0	cane	258	219	0	stimuli\cane\cane_03s.jpg	2	-1	0	0	cane_03s.jpg	0	0.0	0	126.512355298961	126.562334087517	0.0499787885564729	139300
139.4	50	220	0	0	buffet	211	220	0	stimuli\buffet\buffet_06s.jpg	5	-1	0	0	buffet_06s.jpg	0	0.0	0	126.612349203719	126.66233871989999	0.0499895161810855	139400
139.5	50	221	0	0	ice_pack	820	221	0	stimuli\ice_pack\ice_pack_11s.jpg	10	-1	0	0	ice_pack_11s.jpg	0	0.0	0	126.71236090658199	126.762343352286	0.0499824457037903	139500
139.6	50	222	0	0	bowl	177	222	0	stimuli\bowl\bowl_08s.jpg	7	-1	0	0	bowl_08s.jpg	0	0.0	0	126.81236724563101	126.86233262466001	0.0499653790284356	139600
139.7	50	223	0	0	headphones	766	223	0	stimuli\headphones\headphones_05s.jpg	4	-1	0	0	headphones_05s.jpg	0	0.0	0	126.912371390397	126.962344815143	0.0499734247459855	139700
139.8	50	224	0	0	corset	418	224	0	stimuli\corset\corset_10s.jpg	9	-1	0	0	corset_10s.jpg	0	0.0	0	127.012363100868	127.062340914188	0.0499778133198561	139800
139.9	50	225	0	0	chopsticks	339	225	0	stimuli\chopsticks\chopsticks_08s.jpg	7	-1	0	0	chopsticks_08s.jpg	0	0.0	0	127.112378217069	127.162356761819	0.0499785447500471	139900
140.0	50	226	0	0	statue	1543	226	0	stimuli\statue\statue_02s.jpg	1	-1	0	0	statue_02s.jpg	0	0.0	0	127.21237675421101	127.26235456753099	0.0499778133198561	140000
140.1	50	227	0	0	paperweight	1117	227	0	stimuli\paperweight\paperweight_10s.jpg	9	-1	0	0	paperweight_10s.jpg	0	0.0	0	127.312375778973	127.362356518006	0.0499807390333444	140100
140.2	50	228	0	0	train_car	1699	228	0	stimuli\train_car\train_car_04s.jpg	3	-1	0	0	train_car_04s.jpg	0	0.0	0	127.41238163040501	127.46235919991501	0.0499775695097924	140200
140.3	50	229	0	0	ski_boots	1453	229	0	stimuli\ski_boots\ski_boots_07s.jpg	6	-1	0	0	ski_boots_07s.jpg	0	0.0	0	127.51238236183399	127.56235091038602	0.0499685485519876	140300
140.4	50	230	0	0	ashtray	41	230	0	stimuli\ashtray\ashtray_03n.jpg	2	-1	0	0	ashtray_03n.jpg	0	0.0	0	127.61238504373999	127.66236358849	0.0499785447500471	140400
140.5	50	231	0	0	coffin	383	231	0	stimuli\coffin\coffin_03s.jpg	2	-1	0	0	coffin_03s.jpg	0	0.0	0	127.712376266591	127.762366758016	0.0499904914249782	140500
140.6	50	232	0	0	leech	909	232	0	stimuli\leech\leech_09s.jpg	8	-1	0	0	leech_09s.jpg	0	0.0	0	127.812379923736	127.86237163420799	0.0499917104716587	140600
140.7	50	233	0	0	beanbag	103	233	0	stimuli\beanbag\beanbag_12s.jpg	11	-1	0	1	beanbag_12s.jpg	0	0.0	0	127.91239845327101	127.962366026586	0.0499675733153708	140700
140.8	50	234	0	0	pistachio	1188	234	0	stimuli\pistachio\pistachio_05s.jpg	4	-1	0	0	pistachio_05s.jpg	0	0.0	0	128.012396502792	128.062376266593	0.0499797638003656	140800
140.9	50	235	0	0	popcorn	1223	235	0	stimuli\popcorn\popcorn_09s.jpg	8	-1	0	0	popcorn_09s.jpg	0	0.0	0	128.11239552755399	128.162384312309	0.0499887847545324	140900
141.0	50	236	0	0	nutcracker	1067	236	0	stimuli\nutcracker\nutcracker_01b.jpg	0	-1	0	0	nutcracker_01b.jpg	0	0.0	0	128.212391382789	128.26238699421802	0.0499956114290399	141000
141.1	50	237	0	0	tank2	1621	237	0	stimuli\tank2\tank2_09s.jpg	8	-1	0	0	tank2_09s.jpg	1	0.39217273427857396	1	128.31240918089702	128.362388944694	0.0499797637967276	141100
141.2	50	238	0	0	potholder	1232	238	0	stimuli\potholder\potholder_07s.jpg	6	-1	0	0	potholder_07s.jpg	0	0.0	0	128.412416495186	128.462383580882	0.0499670856952434	141200
141.3	50	239	0	0	tank1	1620	239	0	stimuli\tank1\tank1_06s.jpg	5	-1	0	0	tank1_06s.jpg	0	0.0	0	128.51240723042102	128.56238991993098	0.049982689510216	141300
141.4	50	240	0	0	crystal2	454	240	0	stimuli\crystal2\crystal2_03s.jpg	2	-1	0	0	crystal2_03s.jpg	0	0.0	0	128.61240040374798	128.66239138279	0.0499909790414677	141400
141.5	50	241	0	0	toga	1669	241	0	stimuli\toga\toga_08s.jpg	7	-1	0	0	toga_08s.jpg	0	0.0	0	128.712402354227	128.762391870408	0.0499895161810855	141500
141.6	50	242	0	0	washcloth	1783	242	0	stimuli\washcloth\washcloth_05s.jpg	4	-1	0	0	washcloth_05s.jpg	0	0.0	0	128.812441119964	128.862402841845	0.0499617218811181	141600
141.7	50	243	0	0	cornmeal	415	243	0	stimuli\cornmeal\cornmeal_04s.jpg	3	-1	0	0	cornmeal_04s.jpg	0	0.0	0	128.912408693279	128.962402354227	0.0499936609485303	141700
141.8	50	244	0	0	brass_knuckles	193	244	0	stimuli\brass_knuckles\brass_knuckles_04s.jpg	3	-1	0	0	brass_knuckles_04s.jpg	0	0.0	0	129.01240991232402	129.062399916129	0.0499900038048509	141800
141.9	50	245	0	0	pencil_sharpener	1143	245	0	stimuli\pencil_sharpener\pencil_sharpener_04s.jpg	3	-1	0	0	pencil_sharpener_04s.jpg	0	0.0	0	129.11245452949498	129.16239065136298	0.049936121868086	141900
142.0	50	246	0	0	popsicle	1225	246	0	stimuli\popsicle\popsicle_01b.jpg	0	-1	0	0	popsicle_01b.jpg	0	0.0	0	129.212424784717	129.262406742801	0.0499819580836629	142000
142.1	50	247	0	0	parachute	1118	247	0	stimuli\parachute\parachute_12s.jpg	11	-1	0	0	parachute_12s.jpg	0	0.0	0	129.312428685669	129.36241356947	0.0499848838007892	142100
142.2	50	248	0	0	straw2	1569	248	0	stimuli\straw2\straw2_04s.jpg	3	-1	0	0	straw2_04s.jpg	0	0.0	0	129.412426003764	129.462415763759	0.0499897599947872	142200
142.3	50	249	0	0	lectern	908	249	0	stimuli\lectern\lectern_07s.jpg	6	-1	0	0	lectern_07s.jpg	0	0.0	0	129.512435756151	129.562416738998	0.0499809828470461	142300
142.4	50	250	0	0	handle	748	250	0	stimuli\handle\handle_04s.jpg	3	-1	0	0	handle_04s.jpg	0	0.0	0	129.612453798069	129.662411375182	0.0499575771136733	142400
142.5	50	251	0	0	giraffe	675	251	0	stimuli\giraffe\giraffe_03s.jpg	2	-1	0	0	giraffe_03s.jpg	0	0.0	0	129.712426735194	129.762421371379	0.0499946361851471	142500
142.6	50	252	0	0	refrigerator	1300	252	0	stimuli\refrigerator\refrigerator_12s.jpg	11	-1	0	0	refrigerator_12s.jpg	0	0.0	0	129.812443070441	129.86242966090902	0.0499865904675971	142600
142.7	50	253	0	0	mousetrap	1029	253	0	stimuli\mousetrap\mousetrap_01b.jpg	0	-1	0	0	mousetrap_01b.jpg	0	0.0	0	129.912434537102	129.962426979004	0.0499924419018498	142700
142.8	50	254	0	0	cow	426	254	0	stimuli\cow\cow_02s.jpg	1	-1	0	0	cow_02s.jpg	0	0.0	0	130.012436243771	130.062426979002	0.04999073523140401	142800
142.9	50	255	0	0	weather_vane	1798	255	0	stimuli\weather_vane\weather_vane_12s.jpg	11	-1	0	0	weather_vane_12s.jpg	0	0.0	0	130.112459161879	130.16243648757901	0.0499773256997287	142900
143.0	50	256	0	0	shoehorn	1425	256	0	stimuli\shoehorn\shoehorn_05s.jpg	4	-1	0	0	shoehorn_05s.jpg	0	0.0	0	130.212453066637	130.26243185519698	0.0499787885601108	143000
143.1	50	257	0	0	combination_lock	390	257	0	stimuli\combination_lock\combination_lock_11s.jpg	10	-1	0	0	combination_lock_11s.jpg	0	0.0	0	130.31245501711598	130.362439169487	0.0499841523705982	143100
143.2	50	258	0	0	chinaware	331	258	0	stimuli\chinaware\chinaware_08s.jpg	7	-1	0	0	chinaware_08s.jpg	0	0.0	0	130.412460380929	130.462440144725	0.0499797637967276	143200
143.3	50	259	0	0	aluminum_foil	17	259	0	stimuli\aluminum_foil\aluminum_foil_11s.jpg	10	-1	0	0	aluminum_foil_11s.jpg	0	0.0	0	130.512462819024	130.562448190445	0.0499853714209166	143300
143.4	50	260	0	0	wig	1816	260	0	stimuli\wig\wig_05s.jpg	4	-1	0	0	wig_05s.jpg	0	0.0	0	130.61246452569299	130.66244794663402	0.0499834209404071	143400
143.5	50	261	0	0	dishwashing_liquid	492	261	0	stimuli\dishwashing_liquid\dishwashing_liquid_08s.jpg	7	-1	0	0	dishwashing_liquid_08s.jpg	0	0.0	0	130.712459893308	130.762446971396	0.0499870780877245	143500
143.6	50	262	0	0	taillight	1617	262	0	stimuli\taillight\taillight_07s.jpg	6	-1	0	0	taillight_07s.jpg	1	0.0	0	130.812485005707	130.862460137119	0.0499751314127934	143600
143.7	50	263	0	0	corkboard	410	263	0	stimuli\corkboard\corkboard_12s.jpg	11	-1	0	0	corkboard_12s.jpg	0	0.0	0	130.912463794262	130.962458918071	0.0499951238089125	143700
143.8	50	264	0	0	soap	1487	264	0	stimuli\soap\soap_09s.jpg	8	-1	0	0	soap_09s.jpg	0	0.0	0	131.012465744741	131.062475253319	0.0500095085772045	143800
143.9	50	265	0	0	garter	659	265	0	stimuli\garter\garter_12s.jpg	11	-1	0	0	garter_12s.jpg	0	0.0	0	131.112482079989	131.162465500933	0.0499834209440451	143900
144.0	50	266	0	0	highlighter	778	266	0	stimuli\highlighter\highlighter_11s.jpg	10	-1	0	0	highlighter_11s.jpg	0	0.0	0	131.212473059029	131.262464038075	0.0499909790451056	144000
144.1	50	267	0	0	man	963	267	0	stimuli\man\man_10s.jpg	9	-1	0	0	man_10s.jpg	0	0.0	0	131.312484518086	131.362470377124	0.049985859037405996	144100
144.2	50	268	0	0	underwear	1745	268	0	stimuli\underwear\underwear_04s.jpg	3	-1	0	0	underwear_04s.jpg	0	0.0	0	131.412486712372	131.462456479974	0.0499697676023061	144200
144.3	50	269	0	0	blackberry	135	269	0	stimuli\blackberry\blackberry_05s.jpg	4	-1	0	0	blackberry_05s.jpg	0	0.0	0	131.512484518087	131.56247549712901	0.0499909790414677	144300
144.4	50	270	0	0	dolly	501	270	0	stimuli\dolly\dolly_01s.jpg	0	-1	0	0	dolly_01s.jpg	0	0.0	0	131.612483786656	131.662465500933	0.0499817142772372	144400
144.5	50	271	0	0	whiteboard	1813	271	0	stimuli\whiteboard\whiteboard_05s.jpg	4	-1	0	0	whiteboard_05s.jpg	0	0.0	0	131.712487687611	131.762465257121	0.0499775695097924	144500
144.6	50	272	0	0	boa	150	272	0	stimuli\boa\boa_05s.jpg	4	-1	0	0	boa_05s.jpg	0	0.0	0	131.812478666652	131.86249622095102	0.0500175542983925	144600
144.7	50	273	0	0	pizza	1192	273	0	stimuli\pizza\pizza_02s.jpg	1	-1	0	0	pizza_02s.jpg	0	0.0	0	131.912518895249	131.96248061713	0.0499617218811181	144700
144.8	50	274	0	0	strap	1567	274	0	stimuli\strap\strap_09s.jpg	8	-1	0	0	strap_09s.jpg	0	0.0	0	132.01250451048	132.06251206858	0.050007558100333	144800
144.9	50	275	0	0	space_shuttle	1501	275	0	stimuli\space_shuttle\space_shuttle_08s.jpg	7	-1	0	0	space_shuttle_08s.jpg	0	0.0	0	132.112520845727	132.162503535241	0.049982689513854005	144900
145.0	50	276	0	0	bazooka	98	276	0	stimuli\bazooka\bazooka_03s.jpg	2	-1	0	0	bazooka_03s.jpg	0	0.0	0	132.212495245712	132.262476959986	0.0499817142735992	145000
145.1	50	277	0	0	shopping_basket	1427	277	0	stimuli\shopping_basket\shopping_basket_04s.jpg	3	-1	0	1	shopping_basket_04s.jpg	0	0.0	0	132.312519139057	132.362482567609	0.049963428551564	145100
145.2	50	278	0	0	recliner	1294	278	0	stimuli\recliner\recliner_07s.jpg	6	-1	0	0	recliner_07s.jpg	0	0.0	0	132.41250158476402	132.46248329903798	0.0499817142735992	145200
145.3	50	279	0	0	cape	266	279	0	stimuli\cape\cape_12s.jpg	11	-1	0	0	cape_12s.jpg	0	0.0	0	132.51250377904898	132.56248329903602	0.0499795199866639	145300
145.4	50	280	0	0	batter	96	280	0	stimuli\batter\batter_05s.jpg	4	-1	0	0	batter_05s.jpg	0	0.0	0	132.612513531436	132.662492319996	0.0499787885601108	145400
145.5	50	281	0	0	tongue	1675	281	0	stimuli\tongue\tongue_07s.jpg	6	-1	0	0	tongue_07s.jpg	0	0.0	0	132.712510118101	132.762491100948	0.0499809828470461	145500
145.6	50	282	0	0	minivan	1003	282	0	stimuli\minivan\minivan_03s.jpg	2	-1	0	0	minivan_03s.jpg	0	0.0	0	132.812517920011	132.862503291431	0.0499853714209166	145600
145.7	50	283	0	0	paper_towel	1115	283	0	stimuli\paper_towel\paper_towel_10s.jpg	9	-1	0	0	paper_towel_10s.jpg	0	0.0	0	132.912519139059	132.962500365713	0.0499812266534718	145700
145.8	50	284	0	0	brake	191	284	0	stimuli\brake\brake_08s.jpg	7	-1	0	0	brake_08s.jpg	0	0.0	0	133.01251913905799	133.062496952378	0.0499778133198561	145800
145.9	50	285	0	0	leopard	917	285	0	stimuli\leopard\leopard_06s.jpg	5	-1	0	0	leopard_06s.jpg	0	0.0	0	133.112522064774	133.162507680005	0.0499856152309803	145900
146.0	50	286	0	0	bug	212	286	0	stimuli\bug\bug_01b.jpg	0	-1	0	0	bug_01b.jpg	0	0.0	0	133.212525234299	133.262516213344	0.0499909790451056	146000
146.1	50	287	0	0	toaster_oven	1667	287	0	stimuli\toaster_oven\toaster_oven_05s.jpg	4	-1	0	0	toaster_oven_05s.jpg	0	0.0	0	133.312541813357	133.36251718858298	0.0499753752264951	146100
146.2	50	288	0	0	stair	1532	288	0	stimuli\stair\stair_04s.jpg	3	-1	0	0	stair_04s.jpg	0	0.0	0	133.412537424785	133.462519626679	0.0499822018937266	146200
146.3	50	289	0	0	cardinal	274	289	0	stimuli\cardinal\cardinal_09s.jpg	8	-1	0	0	cardinal_09s.jpg	0	0.0	0	133.512539862881	133.562529135255	0.0499892723746598	146300
146.4	50	290	0	0	football	629	290	0	stimuli\football\football_03s.jpg	2	-1	0	0	football_03s.jpg	0	0.0	0	133.612549615267	133.662529135254	0.0499795199866639	146400
146.5	50	291	0	0	sailboat	1347	291	0	stimuli\sailboat\sailboat_06s.jpg	5	-1	0	0	sailboat_06s.jpg	0	0.0	0	133.712544495265	133.76252669715902	0.0499822018937266	146500
146.6	50	292	0	0	pill	1174	292	0	stimuli\pill\pill_09s.jpg	8	-1	0	0	pill_09s.jpg	0	0.0	0	133.812555466699	133.862522796204	0.0499673295053071	146600
146.7	50	293	0	0	memory_stick	995	293	0	stimuli\memory_stick\memory_stick_09s.jpg	8	-1	0	0	memory_stick_09s.jpg	0	0.0	0	133.912549859077	133.962534011451	0.0499841523742361	146700
146.8	50	294	0	0	shredder	1437	294	0	stimuli\shredder\shredder_07s.jpg	6	-1	0	0	shredder_07s.jpg	0	0.0	0	134.01255424765301	134.062535230496	0.0499809828434081	146800
146.9	50	295	0	0	globe	679	295	0	stimuli\globe\globe_08s.jpg	7	-1	0	0	globe_08s.jpg	0	0.0	0	134.112559367655	134.16253937526199	0.0499800076067913	146900
147.0	50	296	0	0	slot_machine	1470	296	0	stimuli\slot_machine\slot_machine_12s.jpg	11	-1	0	0	slot_machine_12s.jpg	0	0.0	0	134.212559123844	134.26253352383	0.0499743999862403	147000
147.1	50	297	0	0	ostrich	1084	297	0	stimuli\ostrich\ostrich_11s.jpg	10	-1	0	0	ostrich_11s.jpg	0	0.0	0	134.31256936385	134.36255034669702	0.0499809828470461	147100
147.2	50	298	0	0	tack	1611	298	0	stimuli\tack\tack_11s.jpg	10	-1	0	0	tack_11s.jpg	0	0.0	0	134.412571558139	134.462550590506	0.0499790323665366	147200
147.3	50	299	0	0	hockey_stick	783	299	0	stimuli\hockey_stick\hockey_stick_06s.jpg	5	-1	0	0	hockey_stick_06s.jpg	0	0.0	0	134.512568876231	134.562549127648	0.049980251416855005	147300
147.4	50	300	0	0	goldfish	688	300	0	stimuli\goldfish\goldfish_10s.jpg	9	-1	0	0	goldfish_10s.jpg	0	0.0	0	134.612578628617	134.66255814860799	0.0499795199903019	147400
147.5	50	301	0	0	radish	1274	301	0	stimuli\radish\radish_04n.jpg	3	-1	0	0	radish_04n.jpg	0	0.0	0	134.71257131432898	134.762558148606	0.0499868342776608	147500
147.6	50	302	0	0	birdbath	129	302	0	stimuli\birdbath\birdbath_02s.jpg	1	-1	0	0	birdbath_02s.jpg	0	0.0	0	134.812580822905	134.86256814480302	0.0499873218977882	147600
147.7	50	303	0	0	moth	1023	303	0	stimuli\moth\moth_02n.jpg	1	-1	0	0	moth_02n.jpg	0	0.0	0	134.912579116237	134.962554003843	0.0499748876063677	147700
147.8	50	304	0	0	grate	707	304	0	stimuli\grate\grate_04s.jpg	3	-1	0	0	grate_04s.jpg	0	0.0	0	135.012582529573	135.062568876234	0.0499863466611714	147800
147.9	50	305	0	0	hamburger	740	305	0	stimuli\hamburger\hamburger_08s.jpg	7	-1	0	0	hamburger_08s.jpg	0	0.0	0	135.112596182917	135.162573020996	0.0499768380796013	147900
148.0	50	306	0	0	springboard	1522	306	0	stimuli\springboard\springboard_12s.jpg	11	-1	0	0	springboard_12s.jpg	0	0.0	0	135.21259252577102	135.262572289568	0.0499797637967276	148000
148.1	50	307	0	0	meat	987	307	0	stimuli\meat\meat_01b.jpg	0	-1	0	0	meat_01b.jpg	0	0.0	0	135.31259472005698	135.362572533377	0.0499778133198561	148100
148.2	50	308	0	0	float	616	308	0	stimuli\float\float_11s.jpg	10	-1	0	0	float_11s.jpg	0	0.0	0	135.412589356245	135.462570582898	0.0499812266534718	148200
151.584	50	309	0	0	microphone	998	0	1	stimuli\microphone\microphone_07s.jpg	6	-1	1	0	microphone_07s.jpg	0	0.0	0	138.796007616613	138.845993719464	0.0499861028511077	151584
151.684	50	310	0	0	coin	385	1	1	stimuli\coin\coin_05s.jpg	4	-1	1	0	coin_05s.jpg	0	0.0	0	138.896008104235	138.945986892792	0.0499787885564729	151684
151.784	50	311	0	0	purse	1259	2	1	stimuli\purse\purse_12s.jpg	11	-1	1	0	purse_12s.jpg	0	0.0	0	138.9960098109	139.046005178516	0.0499953676153382	151784
151.884	50	312	0	0	wing	1827	3	1	stimuli\wing\wing_03s.jpg	2	-1	1	0	wing_03s.jpg	0	0.0	0	139.096012980426	139.146008835662	0.0499958552354656	151884
151.984	50	313	0	0	crystal1	453	4	1	stimuli\crystal1\crystal1_11s.jpg	10	-1	1	0	crystal1_11s.jpg	0	0.0	0	139.196027609007	139.24600444709	0.0499768380832393	151984
152.084	50	314	0	0	orchid	1081	5	1	stimuli\orchid\orchid_10s.jpg	9	-1	1	0	orchid_10s.jpg	0	0.0	0	139.296035167106	139.34601371185602	0.0499785447500471	152084
152.184	50	315	0	0	spaghetti	1503	6	1	stimuli\spaghetti\spaghetti_01b.jpg	0	-1	1	0	spaghetti_01b.jpg	0	0.0	0	139.396037117585	139.446012005188	0.0499748876027297	152184
152.284	50	316	0	0	treasure	1707	7	1	stimuli\treasure\treasure_09s.jpg	8	-1	1	0	treasure_09s.jpg	0	0.0	0	139.496037117584	139.546022489005	0.0499853714209166	152284
152.384	50	317	0	0	turntable	1735	8	1	stimuli\turntable\turntable_01b.jpg	0	-1	1	0	turntable_01b.jpg	0	0.0	0	139.596043212827	139.646022245193	0.0499790323665366	152384
152.484	50	318	0	0	wooden_leg	1834	9	1	stimuli\wooden_leg\wooden_leg_11s.jpg	10	-1	1	0	wooden_leg_11s.jpg	0	0.0	0	139.696035654728	139.746024683292	0.0499890285645961	152484
152.584	50	319	0	0	cuckoo_clock	456	10	1	stimuli\cuckoo_clock\cuckoo_clock_06s.jpg	5	-1	1	0	cuckoo_clock_06s.jpg	0	0.0	0	139.796047113781	139.846023951861	0.0499768380796013	152584
152.684	50	320	0	0	solar_panel	1493	11	1	stimuli\solar_panel\solar_panel_03s.jpg	2	-1	1	0	solar_panel_03s.jpg	0	0.0	0	139.89604467568302	139.946028828057	0.0499841523742361	152684
152.784	50	321	0	0	grille	715	12	1	stimuli\grille\grille_06s.jpg	5	-1	1	0	grille_06s.jpg	0	0.0	0	139.996049308069	140.046029071866	0.0499797637967276	152784
152.884	50	322	0	0	bungee	221	13	1	stimuli\bungee\bungee_06s.jpg	5	-1	1	0	bungee_06s.jpg	0	0.0	0	140.096053209021	140.146035167108	0.0499819580873009	152884
152.984	50	323	0	0	footbath	631	14	1	stimuli\footbath\footbath_03s.jpg	2	-1	1	0	footbath_03s.jpg	0	0.0	0	140.196060523314	140.246038580441	0.0499780571262818	152984
153.084	50	324	0	0	thimble	1649	15	1	stimuli\thimble\thimble_12s.jpg	11	-1	1	0	thimble_12s.jpg	0	0.0	0	140.296059548073	140.34603394805902	0.0499743999862403	153084
153.184	50	325	0	0	fishnet_stockings	604	16	1	stimuli\fishnet_stockings\fishnet_stockings_11s.jpg	10	-1	1	0	fishnet_stockings_11s.jpg	0	0.0	0	140.396059304265	140.446041262348	0.0499819580836629	153184
153.284	50	326	0	0	road_sign	1315	17	1	stimuli\road_sign\road_sign_02s.jpg	1	-1	1	0	road_sign_02s.jpg	0	0.0	0	140.496067837605	140.546045163304	0.0499773256997287	153284
153.384	50	327	0	0	chive	337	18	1	stimuli\chive\chive_10s.jpg	9	-1	1	0	chive_10s.jpg	0	0.0	0	140.596062961409	140.64604589473302	0.0499829333239177	153384
153.484	50	328	0	0	wrap	1837	19	1	stimuli\wrap\wrap_05s.jpg	4	-1	1	0	wrap_05s.jpg	0	0.0	0	140.696072713796	140.74604906425898	0.0499763504631119	153484
153.584	50	329	0	0	microwave	1000	20	1	stimuli\microwave\microwave_05s.jpg	4	-1	1	0	microwave_05s.jpg	0	0.0	0	140.79607734618202	140.846044188063	0.0499668418815418	153584
153.684	50	330	0	0	eel	545	21	1	stimuli\eel\eel_02s.jpg	1	-1	1	0	eel_02s.jpg	0	0.0	0	140.89607734618	140.94605759759702	0.049980251416855005	153684
153.784	50	331	0	0	kale	860	22	1	stimuli\kale\kale_08s.jpg	7	-1	1	0	kale_08s.jpg	0	0.0	0	140.996075395702	141.04607368903498	0.0499982933324645	153784
153.884	50	332	0	0	dynamite	536	23	1	stimuli\dynamite\dynamite_01b.jpg	0	-1	1	0	dynamite_01b.jpg	0	0.0	0	141.096078565228	141.14605954807502	0.0499809828470461	153884
153.984	50	333	0	0	balance_beam	58	24	1	stimuli\balance_beam\balance_beam_03s.jpg	2	-1	1	0	balance_beam_03s.jpg	0	0.0	0	141.196099776669	141.246077589989	0.0499778133198561	153984
154.084	50	334	0	0	coaster	368	25	1	stimuli\coaster\coaster_07s.jpg	6	-1	1	0	coaster_07s.jpg	0	0.0	0	141.296084416659	141.346081247135	0.0499968304757203	154084
154.184	50	335	0	0	burner	224	26	1	stimuli\burner\burner_04s.jpg	3	-1	1	0	burner_04s.jpg	0	0.0	0	141.396127327163	141.446084416661	0.0499570894971839	154184
154.284	50	336	0	0	orange	1078	27	1	stimuli\orange\orange_02s.jpg	1	-1	1	0	orange_02s.jpg	0	0.0	0	141.496104652862	141.54608612333	0.0499814704671735	154284
154.384	50	337	0	0	lollipop	945	28	1	stimuli\lollipop\lollipop_06n.jpg	5	-1	1	0	lollipop_06n.jpg	0	0.0	0	141.596095388097	141.646075639514	0.049980251416855005	154384
154.484	50	338	0	0	pacifier	1093	29	1	stimuli\pacifier\pacifier_08s.jpg	7	-1	1	0	pacifier_08s.jpg	0	0.0	0	141.696100995719	141.74608490428002	0.0499839085605345	154484
154.584	50	339	0	0	basketball_hoop	84	30	1	stimuli\basketball_hoop\basketball_hoop_01b.jpg	0	-1	1	0	basketball_hoop_01b.jpg	0	0.0	0	141.796098557621	141.84607880903798	0.049980251416855005	154584
154.684	50	340	0	0	bell	116	31	1	stimuli\bell\bell_01b.jpg	0	-1	1	0	bell_01b.jpg	0	0.0	0	141.89609709476298	141.946085879517	0.0499887847545324	154684
154.784	50	341	0	0	lemon	914	32	1	stimuli\lemon\lemon_02s.jpg	1	-1	1	0	lemon_02s.jpg	0	0.0	0	141.996105384293	142.046082953802	0.0499775695097924	154784
154.884	50	342	0	0	diving_board	494	33	1	stimuli\diving_board\diving_board_10s.jpg	9	-1	1	0	diving_board_10s.jpg	0	0.0	0	142.096105140481	142.146084172851	0.0499790323701745	154884
154.984	50	343	0	0	ear	538	34	1	stimuli\ear\ear_08s.jpg	7	-1	1	0	ear_08s.jpg	0	0.0	0	142.196117330968	142.246090268094	0.0499729371258582	154984
155.084	50	344	0	0	webcam	1799	35	1	stimuli\webcam\webcam_05s.jpg	4	-1	1	0	webcam_05s.jpg	0	0.0	0	142.2961156243	142.34609441285602	0.0499787885564729	155084
155.184	50	345	0	0	bus	226	36	1	stimuli\bus\bus_09n.jpg	8	-1	1	0	bus_09n.jpg	0	0.0	0	142.396114161442	142.446095631905	0.0499814704635355	155184
155.284	50	346	0	0	cheese	312	37	1	stimuli\cheese\cheese_09s.jpg	8	-1	1	0	cheese_09s.jpg	0	0.0	0	142.496117330968	142.54609392523702	0.0499765942695376	155284
155.384	50	347	0	0	dollhouse	500	38	1	stimuli\dollhouse\dollhouse_01b.jpg	0	-1	1	0	dollhouse_01b.jpg	0	0.0	0	142.596117330966	142.646097338573	0.0499800076067913	155384
155.484	50	348	0	0	flan	609	39	1	stimuli\flan\flan_11s.jpg	10	-1	1	0	flan_11s.jpg	0	0.0	0	142.696113673821	142.746100751909	0.0499870780877245	155484
155.584	50	349	0	0	peach	1129	40	1	stimuli\peach\peach_07n.jpg	6	-1	1	0	peach_07n.jpg	0	0.0	0	142.796123426207	142.846133910025	0.0500104838174593	155584
155.684	50	350	0	0	skewer	1451	41	1	stimuli\skewer\skewer_12s.jpg	11	-1	1	0	skewer_12s.jpg	0	0.0	0	142.89612952145	142.94611147953398	0.0499819580836629	155684
155.784	50	351	0	0	pheasant	1160	42	1	stimuli\pheasant\pheasant_10s.jpg	9	-1	1	0	pheasant_10s.jpg	0	0.0	0	142.99613342240602	143.046130252878	0.0499968304720824	155784
155.884	50	352	0	0	ladder	886	43	1	stimuli\ladder\ladder_02s.jpg	1	-1	1	0	ladder_02s.jpg	0	0.0	0	143.09614707574698	143.146128058594	0.0499809828470461	155884
155.984	50	353	0	0	rack1	1268	44	1	stimuli\rack1\rack1_12s.jpg	11	-1	1	0	rack1_12s.jpg	0	0.0	0	143.196134641454	143.246109041436	0.0499743999826023	155984
156.084	50	354	0	0	duffel_bag	529	45	1	stimuli\duffel_bag\duffel_bag_06s.jpg	5	-1	1	0	duffel_bag_06s.jpg	0	0.0	0	143.296139273836	143.346114892869	0.0499756190329208	156084
156.184	50	355	0	0	exerciser	561	46	1	stimuli\exerciser\exerciser_01b.jpg	0	-1	1	0	exerciser_01b.jpg	0	0.0	0	143.396139030028	143.446120256682	0.0499812266534718	156184
156.284	50	356	0	0	tiramisu	1663	47	1	stimuli\tiramisu\tiramisu_09s.jpg	8	-1	1	0	tiramisu_09s.jpg	0	0.0	0	143.496141468124	143.546124157638	0.049982689513854005	156284
156.384	50	357	0	0	basketball	83	48	1	stimuli\basketball\basketball_08s.jpg	7	-1	1	0	basketball_08s.jpg	0	0.0	0	143.596143906219	143.64612367002	0.0499797638003656	156384
156.484	50	358	0	0	clipper1	356	49	1	stimuli\clipper1\clipper1_08s.jpg	7	-1	1	0	clipper1_08s.jpg	0	0.0	0	143.696147075745	143.746129277639	0.0499822018937266	156484
156.584	50	359	0	0	rocket	1320	50	1	stimuli\rocket\rocket_04s.jpg	3	-1	1	0	rocket_04s.jpg	0	0.0	0	143.796137323359	143.846118793823	0.0499814704635355	156584
156.684	50	360	0	0	beet	114	51	1	stimuli\beet\beet_04s.jpg	3	-1	1	0	beet_04s.jpg	0	0.0	0	143.89615268337	143.946141468125	0.0499887847545324	156684
156.784	50	361	0	0	whoopee_cushion	1814	52	1	stimuli\whoopee_cushion\whoopee_cushion_01b.jpg	0	-1	1	0	whoopee_cushion_01b.jpg	0	0.0	0	143.99615975384899	144.046137079549	0.0499773256997287	156784
156.884	50	362	0	0	candle	253	53	1	stimuli\candle\candle_09n.jpg	8	-1	1	0	candle_09n.jpg	0	0.0	0	144.096158047181	144.146136591931	0.0499785447500471	156884
156.984	50	363	0	0	bow1	174	54	1	stimuli\bow1\bow1_12s.jpg	11	-1	1	0	bow1_12s.jpg	0	0.0	0	144.196166824331	144.246147319554	0.0499804952232807	156984
157.084	50	364	0	0	spark_plug	1506	55	1	stimuli\spark_plug\spark_plug_08s.jpg	7	-1	1	0	spark_plug_08s.jpg	0	0.0	0	144.296169018617	144.34614951384398	0.0499804952269187	157084
157.184	50	365	0	0	xylophone	1843	56	1	stimuli\xylophone\xylophone_10s.jpg	9	-1	1	0	xylophone_10s.jpg	0	0.0	0	144.396170481476	144.446150001462	0.0499795199866639	157184
157.284	50	366	0	0	golf_cart	689	57	1	stimuli\golf_cart\golf_cart_06s.jpg	5	-1	1	0	golf_cart_06s.jpg	0	0.0	0	144.496173651001	144.546150001464	0.0499763504631119	157284
157.384	50	367	0	0	wine_bottle	1824	58	1	stimuli\wine_bottle\wine_bottle_10s.jpg	9	-1	1	0	wine_bottle_10s.jpg	0	0.0	0	144.596169993856	144.64615170813	0.0499817142735992	157384
157.484	50	368	0	0	rhubarb	1307	59	1	stimuli\rhubarb\rhubarb_07n.jpg	6	-1	1	0	rhubarb_07n.jpg	0	0.0	0	144.69618242815	144.746162679567	0.049980251416855005	157484
157.584	50	369	0	0	thumbtack	1654	60	1	stimuli\thumbtack\thumbtack_02s.jpg	1	-1	1	1	thumbtack_02s.jpg	0	0.0	0	144.796179746241	144.84616097289802	0.0499812266571098	157584
157.684	50	370	0	0	burrito	225	61	1	stimuli\burrito\burrito_07s.jpg	6	-1	1	0	burrito_07s.jpg	0	0.0	0	144.89618242815	144.946161460517	0.0499790323665366	157684
157.784	50	371	0	0	snake	1477	62	1	stimuli\snake\snake_12s.jpg	11	-1	1	0	snake_12s.jpg	0	0.0	0	144.996183647196	145.046162679566	0.0499790323701745	157784
157.884	50	372	0	0	backdrop	47	63	1	stimuli\backdrop\backdrop_11s.jpg	10	-1	1	0	backdrop_11s.jpg	1	0.30571587396116195	1	145.096186085295	145.146164630041	0.0499785447464092	157884
157.984	50	373	0	0	cushion	466	64	1	stimuli\cushion\cushion_05s.jpg	4	-1	1	0	cushion_05s.jpg	0	0.0	0	145.196190230057	145.24616560528	0.0499753752228571	157984
158.084	50	374	0	0	backscratcher	50	65	1	stimuli\backscratcher\backscratcher_03s.jpg	2	-1	1	0	backscratcher_03s.jpg	0	0.0	0	145.296191205296	145.34616487385202	0.0499736685560492	158084
158.184	50	375	0	0	overalls	1090	66	1	stimuli\overalls\overalls_12s.jpg	11	-1	1	0	overalls_12s.jpg	0	0.0	0	145.396195106252	145.446179990053	0.0499848838007892	158184
158.284	50	376	0	0	duck	525	67	1	stimuli\duck\duck_10s.jpg	9	-1	1	0	duck_10s.jpg	0	0.0	0	145.496199738634	145.546176332908	0.0499765942731756	158284
158.384	50	377	0	0	modem	1011	68	1	stimuli\modem\modem_10s.jpg	9	-1	1	0	modem_10s.jpg	0	0.0	0	145.596199251017	145.64618169672	0.0499824457037903	158384
158.484	50	378	0	0	gorilla	695	69	1	stimuli\gorilla\gorilla_12s.jpg	11	-1	1	0	gorilla_12s.jpg	0	0.0	0	145.696199982445	145.74618340338898	0.0499834209440451	158484
158.584	50	379	0	0	air_mattress	5	70	1	stimuli\air_mattress\air_mattress_10s.jpg	9	-1	1	0	air_mattress_10s.jpg	0	0.0	0	145.796202664351	145.84617072528602	0.0499680609354982	158584
158.684	50	380	0	0	keyhole	871	71	1	stimuli\keyhole\keyhole_02s.jpg	1	-1	1	0	keyhole_02s.jpg	0	0.0	0	145.896196325299	145.946178283386	0.0499819580873009	158684
158.784	50	381	0	0	razor_blade	1291	72	1	stimuli\razor_blade\razor_blade_08s.jpg	7	-1	1	0	razor_blade_08s.jpg	0	0.0	0	145.99619510625098	146.046177795764	0.049982689513854005	158784
158.884	50	382	0	0	soda	1490	73	1	stimuli\soda\soda_08s.jpg	7	-1	1	0	soda_08s.jpg	0	0.0	0	146.096204858641	146.14618194053003	0.049977081889664994	158884
158.984	50	383	0	0	windshield	1820	74	1	stimuli\windshield\windshield_03s.jpg	2	-1	1	0	windshield_03s.jpg	0	0.0	0	146.196204858639	146.24618974243998	0.0499848838007892	158984
159.084	50	384	0	0	axe	45	75	1	stimuli\axe\axe_05n.jpg	4	-1	1	0	axe_05n.jpg	0	0.0	0	146.296208515785	146.34618998624902	0.0499814704635355	159084
159.184	50	385	0	0	headlamp	764	76	1	stimuli\headlamp\headlamp_01b.jpg	0	-1	1	0	headlamp_01b.jpg	0	0.0	0	146.396213879598	146.446193155774	0.0499792761766003	159184
159.284	50	386	0	0	fencepost	576	77	1	stimuli\fencepost\fencepost_11s.jpg	10	-1	1	0	fencepost_11s.jpg	0	0.0	0	146.496216561503	146.54619681292	0.049980251416855005	159284
159.384	50	387	0	0	scarecrow	1376	78	1	stimuli\scarecrow\scarecrow_01b.jpg	0	-1	1	0	scarecrow_01b.jpg	0	0.0	0	146.596215830075	146.646195106252	0.0499792761766003	159384
159.484	50	388	0	0	breadbox	195	79	1	stimuli\breadbox\breadbox_07s.jpg	6	-1	1	0	breadbox_07s.jpg	0	0.0	0	146.696220950078	146.746196812921	0.0499758628429845	159484
159.584	50	389	0	0	candlestick	254	80	1	stimuli\candlestick\candlestick_09s.jpg	8	-1	1	0	candlestick_09s.jpg	0	0.0	0	146.796217049123	146.846201201493	0.0499841523705982	159584
159.684	50	390	0	0	clove	365	81	1	stimuli\clove\clove_10s.jpg	9	-1	1	0	clove_10s.jpg	0	0.0	0	146.896237041517	146.946204614829	0.0499675733117328	159684
159.784	50	391	0	0	pump	1252	82	1	stimuli\pump\pump_10s.jpg	9	-1	1	0	pump_10s.jpg	0	0.0	0	146.996226313891	147.046206077688	0.0499797637967276	159784
159.884	50	392	0	0	snowplow	1484	83	1	stimuli\snowplow\snowplow_05n.jpg	4	-1	1	0	snowplow_05n.jpg	0	0.0	0	147.0962265577	147.146208271974	0.0499817142735992	159884
159.984	50	393	0	0	clothes	361	84	1	stimuli\clothes\clothes_06s.jpg	5	-1	1	0	clothes_06s.jpg	0	0.0	0	147.196238991994	147.246224363415	0.0499853714209166	159984
160.084	50	394	0	0	artichoke	39	85	1	stimuli\artichoke\artichoke_08n.jpg	7	-1	1	0	artichoke_08n.jpg	0	0.0	0	147.296233140562	147.34622363198298	0.0499904914213403	160084
160.184	50	395	0	0	penlight	1147	86	1	stimuli\penlight\penlight_09s.jpg	8	-1	1	0	penlight_09s.jpg	0	0.0	0	147.39625630248	147.446232409133	0.0499761066530482	160184
160.284	50	396	0	0	file2	584	87	1	stimuli\file2\file2_09s.jpg	8	-1	1	0	file2_09s.jpg	0	0.0	0	147.496250694858	147.546229971034	0.0499792761766003	160284
160.384	50	397	0	0	metal_detector	996	88	1	stimuli\metal_detector\metal_detector_01b.jpg	0	-1	1	0	metal_detector_01b.jpg	0	0.0	0	147.596250938666	147.64623435961	0.0499834209440451	160384
160.484	50	398	0	0	rocking_chair	1321	89	1	stimuli\rocking_chair\rocking_chair_09s.jpg	8	-1	1	0	rocking_chair_09s.jpg	0	0.0	0	147.69625483962201	147.74624118628	0.0499863466575334	160484
160.584	50	399	0	0	baton1	92	90	1	stimuli\baton1\baton1_10s.jpg	9	-1	1	0	baton1_10s.jpg	0	0.0	0	147.796261666292	147.846243624375	0.0499819580836629	160584
160.684	50	400	0	0	wreck	1840	91	1	stimuli\wreck\wreck_01b.jpg	0	-1	1	0	wreck_01b.jpg	1	0.0	0	147.89625849676702	147.946245574854	0.0499870780877245	160684
160.784	50	401	0	0	swimsuit	1597	92	1	stimuli\swimsuit\swimsuit_09s.jpg	8	-1	1	0	swimsuit_09s.jpg	0	0.0	0	147.996271906301	148.046241186279	0.0499692799785407	160784
160.884	50	402	0	0	playpen	1200	93	1	stimuli\playpen\playpen_08s.jpg	7	-1	1	0	playpen_08s.jpg	0	0.0	0	148.096269224392	148.146253620573	0.0499843961806619	160884
160.984	50	403	0	0	candelabra	252	94	1	stimuli\candelabra\candelabra_08s.jpg	7	-1	1	0	candelabra_08s.jpg	0	0.0	0	148.196272150108	148.246255814862	0.0499836647541088	160984
161.084	50	404	0	0	mitten	1008	95	1	stimuli\mitten\mitten_08s.jpg	7	-1	1	0	mitten_08s.jpg	0	0.0	0	148.296262885342	148.34625605866998	0.0499931733284029	161084
161.184	50	405	0	0	roll	1323	96	1	stimuli\roll\roll_04s.jpg	3	-1	1	0	roll_04s.jpg	0	0.0	0	148.39626581105802	148.446258740576	0.0499929295183392	161184
161.284	50	406	0	0	wallet	1776	97	1	stimuli\wallet\wallet_06s.jpg	5	-1	1	0	wallet_06s.jpg	0	0.0	0	148.49628360916202	148.54626069105498	0.049977081893303	161284
161.384	50	407	0	0	gift	672	98	1	stimuli\gift\gift_09s.jpg	8	-1	1	0	gift_09s.jpg	0	0.0	0	148.596268005345	148.646270687252	0.0500026819063351	161384
161.484	50	408	0	0	macaroni	952	99	1	stimuli\macaroni\macaroni_12s.jpg	11	-1	1	0	macaroni_12s.jpg	0	0.0	0	148.696289460597	148.746267761533	0.0499783009363455	161484
161.584	50	409	0	0	wheelbarrow	1807	100	1	stimuli\wheelbarrow\wheelbarrow_04s.jpg	3	-1	1	0	wheelbarrow_04s.jpg	0	0.0	0	148.7962770263	148.84625532724	0.0499783009399835	161584
161.684	50	410	0	0	tackle	1612	101	1	stimuli\tackle\tackle_02s.jpg	1	-1	1	0	tackle_02s.jpg	0	0.0	0	148.896302626319	148.946269468201	0.0499668418815418	161684
161.784	50	411	0	0	cork	409	102	1	stimuli\cork\cork_07s.jpg	6	-1	1	0	cork_07s.jpg	0	0.0	0	148.996291411073	149.046259228195	0.0499678171217965	161784
161.884	50	412	0	0	poker	1210	103	1	stimuli\poker\poker_09s.jpg	8	-1	1	0	poker_09s.jpg	0	0.0	0	149.096292873932	149.146273612965	0.0499807390333444	161884
161.984	50	413	0	0	wrist	1842	104	1	stimuli\wrist\wrist_07s.jpg	6	-1	1	0	wrist_07s.jpg	0	0.0	0	149.196294336787	149.24627117487	0.0499768380832393	161984
162.084	50	414	0	0	dumbbell	530	105	1	stimuli\dumbbell\dumbbell_12s.jpg	11	-1	1	0	dumbbell_12s.jpg	0	0.0	0	149.296288241549	149.34628629107098	0.0499980495224008	162084
162.184	50	415	0	0	computer	394	106	1	stimuli\computer\computer_07s.jpg	6	-1	1	0	computer_07s.jpg	0	0.0	0	149.39631237870302	149.446272881538	0.0499605028344376	162184
162.284	50	416	0	0	trap	1702	107	1	stimuli\trap\trap_10s.jpg	9	-1	1	0	trap_10s.jpg	0	0.0	0	149.496305552035	149.546283121545	0.0499775695097924	162284
162.384	50	417	0	0	mousepad	1028	108	1	stimuli\mousepad\mousepad_06s.jpg	5	-1	1	0	mousepad_06s.jpg	0	0.0	0	149.596295068219	149.64628970440398	0.0499946361851471	162384
162.484	50	418	0	0	train_set	1700	109	1	stimuli\train_set\train_set_01b.jpg	0	-1	1	0	train_set_01b.jpg	0	0.0	0	149.6963148168	149.746296287267	0.0499814704671735	162484
162.584	50	419	0	0	paint	1096	110	1	stimuli\paint\paint_11s.jpg	10	-1	1	0	paint_11s.jpg	0	0.0	0	149.79629872536302	149.846281658687	0.0499829333239177	162584
162.684	50	420	0	0	carrot	277	111	1	stimuli\carrot\carrot_02s.jpg	1	-1	1	0	carrot_02s.jpg	0	0.0	0	149.896320424425	149.946297750124	0.0499773256997287	162684
162.784	50	421	0	0	waffle_iron	1771	112	1	stimuli\waffle_iron\waffle_iron_08s.jpg	7	-1	1	0	waffle_iron_08s.jpg	0	0.0	0	149.99632213108998	150.046297018696	0.0499748876063677	162784
162.884	50	422	0	0	knob	882	113	1	stimuli\knob\knob_08s.jpg	7	-1	1	0	knob_08s.jpg	0	0.0	0	150.096317986328	150.146294336788	0.0499763504594739	162884
162.984	50	423	0	0	wand	1780	114	1	stimuli\wand\wand_05n.jpg	4	-1	1	0	wand_05n.jpg	0	0.0	0	150.196329689192	150.246304576795	0.0499748876027297	162984
163.084	50	424	0	0	lamb_chop	890	115	1	stimuli\lamb_chop\lamb_chop_12s.jpg	11	-1	1	0	lamb_chop_12s.jpg	0	0.0	0	150.296316767279	150.34630677108402	0.0499900038048509	163084
163.184	50	425	0	0	hot_chocolate	803	116	1	stimuli\hot_chocolate\hot_chocolate_07s.jpg	6	-1	1	0	hot_chocolate_07s.jpg	0	0.0	0	150.396334809193	150.446309209179	0.0499743999862403	163184
163.284	50	426	0	0	ribbon	1308	117	1	stimuli\ribbon\ribbon_08s.jpg	7	-1	1	0	ribbon_08s.jpg	0	0.0	0	150.49632261871	150.54631408537202	0.049991466661595006	163284
163.384	50	427	0	0	sling	1466	118	1	stimuli\sling\sling_03s.jpg	2	-1	1	0	sling_03s.jpg	0	0.0	0	150.596332371097	150.646350900632	0.0500185295350093	163384
163.484	50	428	0	0	plunger	1204	119	1	stimuli\plunger\plunger_01s.jpg	0	-1	1	0	plunger_01s.jpg	0	0.0	0	150.696323593951	150.746314572993	0.0499909790414677	163484
163.584	50	429	0	0	honey	788	120	1	stimuli\honey\honey_03s.jpg	2	-1	1	0	honey_03s.jpg	0	0.0	0	150.796347487296	150.846321155852	0.0499736685560492	163584
163.684	50	430	0	0	grain	698	121	1	stimuli\grain\grain_04s.jpg	3	-1	1	0	grain_04s.jpg	0	0.0	0	150.896336272053	150.946323837758	0.0499875657042139	163684
163.784	50	431	0	0	shortbread	1429	122	1	stimuli\shortbread\shortbread_04s.jpg	3	-1	1	0	shortbread_04s.jpg	0	0.0	0	150.996343342533	151.046324812996	0.0499814704635355	163784
163.884	50	432	0	0	lamppost	892	123	1	stimuli\lamppost\lamppost_06s.jpg	5	-1	1	0	lamppost_06s.jpg	0	0.0	0	151.096343830151	151.14632627585502	0.0499824457037903	163884
163.984	50	433	0	0	chime	328	124	1	stimuli\chime\chime_05s.jpg	4	-1	1	0	chime_05s.jpg	0	0.0	0	151.19633871015	151.246320912043	0.0499822018937266	163984
164.084	50	434	0	0	block	143	125	1	stimuli\block\block_07s.jpg	6	-1	1	0	block_07s.jpg	0	0.0	0	151.296349681583	151.346320180615	0.0499704990324972	164084
164.184	50	435	0	0	skeleton	1450	126	1	stimuli\skeleton\skeleton_10s.jpg	9	-1	1	0	skeleton_10s.jpg	0	0.0	0	151.396355533016	151.44632408156798	0.0499685485519876	164184
164.284	50	436	0	0	caterpillar	286	127	1	stimuli\caterpillar\caterpillar_02s.jpg	1	-1	1	0	caterpillar_02s.jpg	0	0.0	0	151.496332858718	151.546354801587	0.050021942868625	164284
164.384	50	437	0	0	sewing_kit	1406	128	1	stimuli\sewing_kit\sewing_kit_09s.jpg	8	-1	1	0	sewing_kit_09s.jpg	0	0.0	0	151.59637455017202	151.646370649218	0.0499960990455293	164384
164.484	50	438	0	0	knitting	880	129	1	stimuli\knitting\knitting_05s.jpg	4	-1	1	0	knitting_05s.jpg	0	0.0	0	151.696365041593	151.746358458731	0.0499934171384666	164484
164.584	50	439	0	0	target	1627	130	1	stimuli\target\target_06s.jpg	5	-1	1	0	target_06s.jpg	0	0.0	0	151.79638259588998	151.846361384447	0.0499787885564729	164584
164.684	50	440	0	0	cd_player	290	131	1	stimuli\cd_player\cd_player_01b.jpg	0	-1	1	0	cd_player_01b.jpg	0	0.0	0	151.89639112923	151.946365529213	0.0499743999826023	164684
164.784	50	441	0	0	ferris_wheel	579	132	1	stimuli\ferris_wheel\ferris_wheel_08s.jpg	7	-1	1	1	ferris_wheel_08s.jpg	0	0.0	0	151.996362603499	152.04635333873	0.04999073523140401	164784
164.884	50	442	0	0	toaster	1666	133	1	stimuli\toaster\toaster_08s.jpg	7	-1	1	0	toaster_08s.jpg	0	0.0	0	152.09637747588602	152.146357239682	0.0499797637967276	164884
164.984	50	443	0	0	mussel	1042	134	1	stimuli\mussel\mussel_11s.jpg	10	-1	1	0	mussel_11s.jpg	0	0.0	0	152.196377719698	152.246359433972	0.0499817142735992	164984
165.084	50	444	0	0	horn	797	135	1	stimuli\horn\horn_10s.jpg	9	-1	1	0	horn_10s.jpg	0	0.0	0	152.296377719696	152.346362847307	0.0499851276108529	165084
165.184	50	445	0	0	stirrup	1558	136	1	stimuli\stirrup\stirrup_11s.jpg	10	-1	1	0	stirrup_11s.jpg	0	0.0	0	152.39638405874902	152.446366260643	0.0499822018937266	165184
165.284	50	446	0	0	clover	366	137	1	stimuli\clover\clover_11s.jpg	10	-1	1	0	clover_11s.jpg	0	0.0	0	152.496380889221	152.54636552921102	0.0499846399907256	165284
165.384	50	447	0	0	eggbeater	548	138	1	stimuli\eggbeater\eggbeater_12s.jpg	11	-1	1	0	eggbeater_12s.jpg	0	0.0	0	152.596385277797	152.646347487298	0.0499622095012455	165384
165.484	50	448	0	0	goat	684	139	1	stimuli\goat\goat_03s.jpg	2	-1	1	0	goat_03s.jpg	0	0.0	0	152.696408927335	152.746387959702	0.0499790323665366	165484
165.584	50	449	0	0	syrup	1605	140	1	stimuli\syrup\syrup_07s.jpg	6	-1	1	0	syrup_07s.jpg	0	0.0	0	152.796407220667	152.846389422561	0.0499822018937266	165584
165.684	50	450	0	0	bubble	207	141	1	stimuli\bubble\bubble_09s.jpg	8	-1	1	0	bubble_09s.jpg	0	0.0	0	152.896388691133	152.946405757808	0.0500170666746271	165684
165.784	50	451	0	0	blower	145	142	1	stimuli\blower\blower_11s.jpg	10	-1	1	0	blower_11s.jpg	0	0.0	0	152.99639844351998	153.046377719696	0.0499792761766003	165784
165.884	50	452	0	0	mold1	1012	143	1	stimuli\mold1\mold1_06s.jpg	5	-1	1	0	mold1_06s.jpg	0	0.0	0	153.096401369236	153.146385277796	0.0499839085605345	165884
165.984	50	453	0	0	chocolate	338	144	1	stimuli\chocolate\chocolate_12s.jpg	11	-1	1	0	chocolate_12s.jpg	0	0.0	0	153.196400150187	153.246373331123	0.0499731809359218	165984
166.084	50	454	0	0	jukebox	857	145	1	stimuli\jukebox\jukebox_12n.jpg	11	-1	1	0	jukebox_12n.jpg	0	0.0	0	153.296406245427	153.346384790177	0.0499785447500471	166084
166.184	50	455	0	0	baklava	57	146	1	stimuli\baklava\baklava_07s.jpg	6	-1	1	0	baklava_07s.jpg	0	0.0	0	153.396408683526	153.446385033985	0.0499763504594739	166184
166.284	50	456	0	0	notebook	1064	147	1	stimuli\notebook\notebook_09s.jpg	8	-1	1	0	notebook_09s.jpg	0	0.0	0	153.496410146385	153.546387715895	0.0499775695097924	166284
166.384	50	457	0	0	pen	1141	148	1	stimuli\pen\pen_10s.jpg	9	-1	1	0	pen_10s.jpg	0	0.0	0	153.59641282829	153.64639429875402	0.0499814704635355	166384
166.484	50	458	0	0	walrus	1779	149	1	stimuli\walrus\walrus_10s.jpg	9	-1	1	0	walrus_10s.jpg	0	0.0	0	153.696414291149	153.746389422562	0.0499751314127934	166484
166.584	50	459	0	0	anchor	21	150	1	stimuli\anchor\anchor_05s.jpg	4	-1	1	0	anchor_05s.jpg	0	0.0	0	153.796417948291	153.846401369236	0.0499834209440451	166584
166.684	50	460	0	0	wok	1830	151	1	stimuli\wok\wok_12s.jpg	11	-1	1	0	wok_12s.jpg	0	0.0	0	153.896428188298	153.946400393997	0.0499722056993051	166684
166.784	50	461	0	0	rollerskate	1327	152	1	stimuli\rollerskate\rollerskate_05s.jpg	4	-1	1	0	rollerskate_05s.jpg	0	0.0	0	153.996423068296	154.046403075903	0.0499800076067913	166784
166.884	50	462	0	0	cocoon	376	153	1	stimuli\cocoon\cocoon_07s.jpg	6	-1	1	0	cocoon_07s.jpg	0	0.0	0	154.096424287345	154.146405757809	0.0499814704635355	166884
166.984	50	463	0	0	turtleneck	1737	154	1	stimuli\turtleneck\turtleneck_04s.jpg	3	-1	1	0	turtleneck_04s.jpg	0	0.0	0	154.196434771158	154.246412340672	0.0499775695134304	166984
167.084	50	464	0	0	muffin	1035	155	1	stimuli\muffin\muffin_05n.jpg	4	-1	1	0	muffin_05n.jpg	0	0.0	0	154.29643477116002	154.346418923531	0.0499841523705982	167084
167.184	50	465	0	0	steak	1544	156	1	stimuli\steak\steak_09s.jpg	8	-1	1	0	steak_09s.jpg	0	0.0	0	154.39643940354298	154.446417948293	0.0499785447500471	167184
167.284	50	466	0	0	avocado	43	157	1	stimuli\avocado\avocado_12s.jpg	11	-1	1	0	avocado_12s.jpg	0	0.0	0	154.496438915925	154.546418679722	0.0499797637967276	167284
167.384	50	467	0	0	foot	628	158	1	stimuli\foot\foot_10s.jpg	9	-1	1	0	foot_10s.jpg	0	0.0	0	154.596443060687	154.646424774965	0.0499817142772372	167384
167.484	50	468	0	0	scanner	1375	159	1	stimuli\scanner\scanner_08s.jpg	7	-1	1	0	scanner_08s.jpg	0	0.0	0	154.69644379212	154.746423068296	0.0499792761766003	167484
167.584	50	469	0	0	meatloaf	990	160	1	stimuli\meatloaf\meatloaf_11s.jpg	10	-1	1	0	meatloaf_11s.jpg	0	0.0	0	154.796443060688	154.846422824485	0.0499797637967276	167584
167.684	50	470	0	0	can_opener	251	161	1	stimuli\can_opener\can_opener_01b.jpg	0	-1	1	0	can_opener_01b.jpg	0	0.0	0	154.89645720164802	154.946434039732	0.0499768380832393	167684
167.784	50	471	0	0	mole	1014	162	1	stimuli\mole\mole_05s.jpg	4	-1	1	0	mole_05s.jpg	0	0.0	0	154.9964559826	155.046437940684	0.0499819580836629	167784
167.884	50	472	0	0	parsley	1122	163	1	stimuli\parsley\parsley_08s.jpg	7	-1	1	0	parsley_08s.jpg	1	0.0	0	155.096456226413	155.146440866403	0.0499846399907256	167884
167.984	50	473	0	0	ivy	834	164	1	stimuli\ivy\ivy_12s.jpg	11	-1	1	0	ivy_12s.jpg	0	0.0	0	155.19644306068898	155.246434039731	0.0499909790414677	167984
168.084	50	474	0	0	pallet	1101	165	1	stimuli\pallet\pallet_08s.jpg	7	-1	1	0	pallet_08s.jpg	0	0.0	0	155.29645793308	155.346439891164	0.0499819580836629	168084
168.184	50	475	0	0	shopping_cart	1428	166	1	stimuli\shopping_cart\shopping_cart_08s.jpg	7	-1	1	0	shopping_cart_08s.jpg	0	0.0	0	155.396466466416	155.446445254976	0.0499787885601108	168184
168.284	50	476	0	0	periscope	1155	167	1	stimuli\periscope\periscope_03s.jpg	2	-1	1	0	periscope_03s.jpg	0	0.0	0	155.496467685465	155.546448668312	0.0499809828470461	168284
168.384	50	477	0	0	hopscotch	796	168	1	stimuli\hopscotch\hopscotch_12s.jpg	11	-1	1	0	hopscotch_12s.jpg	0	0.0	0	155.596482557856	155.646463784509	0.0499812266534718	168384
168.484	50	478	0	0	gauge	663	169	1	stimuli\gauge\gauge_03s.jpg	2	-1	1	0	gauge_03s.jpg	0	0.0	0	155.69647231785	155.74646914832599	0.0499968304757203	168484
168.584	50	479	0	0	gel	669	170	1	stimuli\gel\gel_08s.jpg	7	-1	1	0	gel_08s.jpg	0	0.0	0	155.796488896907	155.846453544505	0.0499646475982445	168584
168.684	50	480	0	0	pedal	1136	171	1	stimuli\pedal\pedal_02s.jpg	1	-1	1	0	pedal_02s.jpg	0	0.0	0	155.89646987975402	155.946450618787	0.0499807390333444	168684
168.784	50	481	0	0	sock	1489	172	1	stimuli\sock\sock_03s.jpg	2	-1	1	0	sock_03s.jpg	0	0.0	0	155.996482070237	156.046462321654	0.049980251416855005	168784
168.884	50	482	0	0	acorn	3	173	1	stimuli\acorn\acorn_10s.jpg	9	-1	1	0	acorn_10s.jpg	0	0.0	0	156.096484752143	156.14646207784202	0.0499773256997287	168884
168.984	50	483	0	0	drawer	516	174	1	stimuli\drawer\drawer_11s.jpg	10	-1	1	0	drawer_11s.jpg	0	0.0	0	156.196488653099	156.246468904515	0.049980251416855005	168984
169.084	50	484	0	0	wick	1815	175	1	stimuli\wick\wick_07s.jpg	6	-1	1	0	wick_07s.jpg	0	0.0	0	156.296483289283	156.346462809273	0.0499795199903019	169084
169.184	50	485	0	0	pool_table	1222	176	1	stimuli\pool_table\pool_table_09s.jpg	8	-1	1	0	pool_table_09s.jpg	0	0.0	0	156.396487434049	156.446470367373	0.0499829333239177	169184
169.284	50	486	0	0	sardine	1359	177	1	stimuli\sardine\sardine_11s.jpg	10	-1	1	0	sardine_11s.jpg	0	0.0	0	156.49647963214	156.546476462612	0.0499968304720824	169284
169.384	50	487	0	0	lens	916	178	1	stimuli\lens\lens_06s.jpg	5	-1	1	0	lens_06s.jpg	0	0.0	0	156.596496942628	156.646479388331	0.0499824457037903	169384
169.484	50	488	0	0	scraper	1387	179	1	stimuli\scraper\scraper_10s.jpg	9	-1	1	0	scraper_10s.jpg	0	0.0	0	156.69650084358	156.746475974996	0.0499751314164314	169484
169.584	50	489	0	0	kazoo	864	180	1	stimuli\kazoo\kazoo_01s.jpg	0	-1	1	0	kazoo_01s.jpg	0	0.0	0	156.796499624532	156.846477681662	0.0499780571299198	169584
169.684	50	490	0	0	squash	1526	181	1	stimuli\squash\squash_02s.jpg	1	-1	1	0	squash_02s.jpg	0	0.0	0	156.896503769298	156.946485971192	0.0499822018937266	169684
169.784	50	491	0	0	videogame	1762	182	1	stimuli\videogame\videogame_05s.jpg	4	-1	1	0	videogame_05s.jpg	0	0.0	0	156.996505719773	157.046474999755	0.0499692799821787	169784
169.884	50	492	0	0	hearse	771	183	1	stimuli\hearse\hearse_11s.jpg	10	-1	1	0	hearse_11s.jpg	0	0.0	0	157.096510108349	157.146488653099	0.0499785447500471	169884
169.984	50	493	0	0	trigger	1713	184	1	stimuli\trigger\trigger_08s.jpg	7	-1	1	0	trigger_08s.jpg	0	0.0	0	157.196510108348	157.24649084738502	0.0499807390369824	169984
170.084	50	494	0	0	crumb	451	185	1	stimuli\crumb\crumb_03s.jpg	2	-1	1	0	crumb_03s.jpg	0	0.0	0	157.296501331202	157.346494504531	0.0499931733284029	170084
170.184	50	495	0	0	paintbrush	1097	186	1	stimuli\paintbrush\paintbrush_01b.jpg	0	-1	1	0	paintbrush_01b.jpg	0	0.0	0	157.396515715973	157.446495235959	0.0499795199866639	170184
170.284	50	496	0	0	kaleidoscope	861	187	1	stimuli\kaleidoscope\kaleidoscope_02s.jpg	1	-1	1	0	kaleidoscope_02s.jpg	0	0.0	0	157.496516203591	157.546499136912	0.0499829333202797	170284
170.384	50	497	0	0	payphone	1127	188	1	stimuli\payphone\payphone_07s.jpg	6	-1	1	0	payphone_07s.jpg	0	0.0	0	157.596520592164	157.646505475965	0.0499848838007892	170384
170.484	50	498	0	0	bat2	88	189	1	stimuli\bat2\bat2_12s.jpg	11	-1	1	0	bat2_12s.jpg	0	0.0	0	157.69652424931002	157.746503281676	0.0499790323665366	170484
170.584	50	499	0	0	motorcycle	1025	190	1	stimuli\motorcycle\motorcycle_06s.jpg	5	-1	1	0	motorcycle_06s.jpg	0	0.0	0	157.796514253114	157.846507426442	0.0499931733284029	170584
170.684	50	500	0	0	pepper2	1150	191	1	stimuli\pepper2\pepper2_06s.jpg	5	-1	1	0	pepper2_06s.jpg	0	0.0	0	157.89653351407802	157.946510595968	0.049977081889664994	170684
170.784	50	501	0	0	extinguisher	563	192	1	stimuli\extinguisher\extinguisher_02s.jpg	1	-1	1	0	extinguisher_02s.jpg	0	0.0	0	157.996530100743	158.04650888930001	0.0499787885564729	170784
170.884	50	502	0	0	coil	384	193	1	stimuli\coil\coil_09s.jpg	8	-1	1	0	coil_09s.jpg	0	0.0	0	158.096534245506	158.14650181882098	0.0499675733153708	170884
170.984	50	503	0	0	radio	1273	194	1	stimuli\radio\radio_10s.jpg	9	-1	1	0	radio_10s.jpg	0	0.0	0	158.196534976934	158.246516691212	0.0499817142772372	170984
171.084	50	504	0	0	cannonball	261	195	1	stimuli\cannonball\cannonball_12s.jpg	11	-1	1	0	cannonball_12s.jpg	0	0.0	0	158.29653717122298	158.346518641687	0.0499814704635355	171084
171.184	50	505	0	0	cap	265	196	1	stimuli\cap\cap_03s.jpg	2	-1	1	0	cap_03s.jpg	0	0.0	0	158.39654643599	158.446521079783	0.049974643792665994	171184
171.284	50	506	0	0	mouse1	1026	197	1	stimuli\mouse1\mouse1_02s.jpg	1	-1	1	0	mouse1_02s.jpg	0	0.0	0	158.496543022655	158.54652741883498	0.0499843961806619	171284
171.384	50	507	0	0	microscope	999	198	1	stimuli\microscope\microscope_11s.jpg	10	-1	1	0	microscope_11s.jpg	0	0.0	0	158.596548630278	158.646536195985	0.0499875657078519	171384
171.484	50	508	0	0	computer_screen	395	199	1	stimuli\computer_screen\computer_screen_07s.jpg	6	-1	1	0	computer_screen_07s.jpg	0	0.0	0	158.69655570075702	158.746533757887	0.0499780571299198	171484
171.584	50	509	0	0	ambulance	19	200	1	stimuli\ambulance\ambulance_04s.jpg	3	-1	1	0	ambulance_04s.jpg	0	0.0	0	158.796557163616	158.846536927413	0.0499797637967276	171584
171.684	50	510	0	0	mosquito	1020	201	1	stimuli\mosquito\mosquito_09s.jpg	8	-1	1	0	mosquito_09s.jpg	0	0.0	0	158.896559114091	158.946541072179	0.0499819580873009	171684
171.784	50	511	0	0	patty	1126	202	1	stimuli\patty\patty_12s.jpg	11	-1	1	0	patty_12s.jpg	0	0.0	0	158.99656130838002	159.046540828367	0.0499795199866639	171784
171.884	50	512	0	0	laptop	897	203	1	stimuli\laptop\laptop_05s.jpg	4	-1	1	0	laptop_05s.jpg	0	0.0	0	159.096561552189	159.146548142657	0.0499865904675971	171884
171.984	50	513	0	0	mint	1004	204	1	stimuli\mint\mint_09s.jpg	8	-1	1	0	mint_09s.jpg	0	0.0	0	159.19658812744498	159.24656130838002	0.0499731809359218	171984
172.084	50	514	0	0	shrimp	1438	205	1	stimuli\shrimp\shrimp_08s.jpg	7	-1	1	0	shrimp_08s.jpg	0	0.0	0	159.29656764743	159.34656764743	0.0499999999992724	172084
172.184	50	515	0	0	bookmark	166	206	1	stimuli\bookmark\bookmark_07s.jpg	6	-1	1	0	bookmark_07s.jpg	0	0.0	0	159.396567403623	159.446567891242	0.0500004876193998	172184
172.284	50	516	0	0	radiator	1272	207	1	stimuli\radiator\radiator_05s.jpg	4	-1	1	0	radiator_05s.jpg	0	0.0	0	159.496574717912	159.546554969329	0.049980251416855005	172284
172.384	50	517	0	0	tortellini	1686	208	1	stimuli\tortellini\tortellini_06s.jpg	5	-1	1	0	tortellini_06s.jpg	0	0.0	0	159.596580081725	159.646556919804	0.0499768380796013	172384
172.484	50	518	0	0	chili	327	209	1	stimuli\chili\chili_04s.jpg	3	-1	1	0	chili_04s.jpg	0	0.0	0	159.69658276363	159.746557895043	0.0499751314127934	172484
172.584	50	519	0	0	coyote	427	210	1	stimuli\coyote\coyote_06s.jpg	5	-1	1	0	coyote_06s.jpg	0	0.0	0	159.796576668388	159.846559845522	0.0499831771339814	172584
172.684	50	520	0	0	medal	991	211	1	stimuli\medal\medal_02s.jpg	1	-1	1	0	medal_02s.jpg	0	0.0	0	159.896580325534	159.946563258858	0.0499829333239177	172684
172.784	50	521	0	0	eggshell	551	212	1	stimuli\eggshell\eggshell_12s.jpg	11	-1	1	0	eggshell_12s.jpg	0	0.0	0	159.996582032203	160.046562771236	0.0499807390333444	172784
172.884	50	522	0	0	desk	480	213	1	stimuli\desk\desk_04s.jpg	3	-1	1	0	desk_04s.jpg	0	0.0	0	160.096603731265	160.146571548386	0.0499678171217965	172884
172.984	50	523	0	0	tee	1636	214	1	stimuli\tee\tee_03s.jpg	2	-1	1	0	tee_03s.jpg	0	0.0	0	160.19659300363898	160.246573011245	0.0499800076067913	172984
173.084	50	524	0	0	magnifying_glass	958	215	1	stimuli\magnifying_glass\magnifying_glass_01b.jpg	0	-1	1	0	magnifying_glass_01b.jpg	0	0.0	0	160.296595929354	160.34656764743	0.0499717180755397	173084
173.184	50	525	0	0	rain_gauge	1278	216	1	stimuli\rain_gauge\rain_gauge_09s.jpg	8	-1	1	0	rain_gauge_09s.jpg	0	0.0	0	160.396596416973	160.446574230293	0.0499778133198561	173184
173.284	50	526	0	0	noisemaker	1060	217	1	stimuli\noisemaker\noisemaker_02s.jpg	1	-1	1	0	noisemaker_02s.jpg	1	0.0	0	160.49659836745198	160.54657813124902	0.0499797637967276	173284
173.384	50	527	0	0	windshield_wiper	1821	218	1	stimuli\windshield_wiper\windshield_wiper_04s.jpg	3	-1	1	0	windshield_wiper_04s.jpg	0	0.0	0	160.596615677936	160.64658398267798	0.0499683047419239	173384
173.484	50	528	0	0	beaker	101	219	1	stimuli\beaker\beaker_07s.jpg	6	-1	1	0	beaker_07s.jpg	0	0.0	0	160.69660495031	160.746582032203	0.049977081893303	173484
173.584	50	529	0	0	metronome	997	220	1	stimuli\metronome\metronome_07s.jpg	6	-1	1	0	metronome_07s.jpg	0	0.0	0	160.796605194122	160.84659105316	0.049985859037405996	173584
173.684	50	530	0	0	surfboard	1587	221	1	stimuli\surfboard\surfboard_09s.jpg	8	-1	1	0	surfboard_09s.jpg	0	0.0	0	160.896594222686	160.946592272208	0.0499980495224008	173684
173.784	50	531	0	0	lavender	904	222	1	stimuli\lavender\lavender_08s.jpg	7	-1	1	0	lavender_08s.jpg	0	0.0	0	160.996614215081	161.04659007792	0.0499758628393465	173784
173.884	50	532	0	0	plum	1203	223	1	stimuli\plum\plum_03s.jpg	2	-1	1	0	plum_03s.jpg	0	0.0	0	161.096612264602	161.146594466496	0.0499822018937266	173884
173.984	50	533	0	0	couch	422	224	1	stimuli\couch\couch_10s.jpg	9	-1	1	0	couch_10s.jpg	0	0.0	0	161.19660641317	161.246595685545	0.0499892723746598	173984
174.084	50	534	0	0	throne	1652	225	1	stimuli\throne\throne_02s.jpg	1	-1	1	0	throne_02s.jpg	0	0.0	0	161.296600561738	161.34659739221001	0.0499968304720824	174084
174.184	50	535	0	0	flashlight	611	226	1	stimuli\flashlight\flashlight_09n.jpg	8	-1	1	0	flashlight_09n.jpg	0	0.0	0	161.39661543412902	161.446609582694	0.0499941485650197	174184
174.284	50	536	0	0	fence	575	227	1	stimuli\fence\fence_02s.jpg	1	-1	1	0	fence_02s.jpg	0	0.0	0	161.496626161752	161.546605194122	0.0499790323701745	174284
174.384	50	537	0	0	outfit	1087	228	1	stimuli\outfit\outfit_04s.jpg	3	-1	1	0	outfit_04s.jpg	0	0.0	0	161.59663981509598	161.646612264602	0.0499724495057308	174384
174.484	50	538	0	0	railing	1277	229	1	stimuli\railing\railing_05s.jpg	4	-1	1	0	railing_05s.jpg	0	0.0	0	161.696615677938	161.746610557933	0.0499948799952108	174484
174.584	50	539	0	0	centrifuge	296	230	1	stimuli\centrifuge\centrifuge_05s.jpg	4	-1	1	0	centrifuge_05s.jpg	0	0.0	0	161.796632988422	161.846613239839	0.049980251416855005	174584
174.684	50	540	0	0	bear	105	231	1	stimuli\bear\bear_03s.jpg	2	-1	1	0	bear_03s.jpg	0	0.0	0	161.896639815095	161.94662128555902	0.0499814704635355	174684
174.784	50	541	0	0	butter	228	232	1	stimuli\butter\butter_07s.jpg	6	-1	1	0	butter_07s.jpg	0	0.0	0	161.996640302714	162.046616896987	0.0499765942731756	174784
174.884	50	542	0	0	rim	1312	233	1	stimuli\rim\rim_12s.jpg	11	-1	1	0	rim_12s.jpg	0	0.0	0	162.096646641767	162.146622748416	0.0499761066494102	174884
174.984	50	543	0	0	handprint	750	234	1	stimuli\handprint\handprint_10s.jpg	9	-1	1	0	handprint_10s.jpg	0	0.0	0	162.196642009381	162.24662274841802	0.0499807390369824	174984
175.084	50	544	0	0	lobster	939	235	1	stimuli\lobster\lobster_06s.jpg	5	-1	1	0	lobster_06s.jpg	0	0.0	0	162.29664591033702	162.346627136991	0.0499812266534718	175084
175.184	50	545	0	0	jalapeno	838	236	1	stimuli\jalapeno\jalapeno_05s.jpg	4	-1	1	0	jalapeno_05s.jpg	0	0.0	0	162.396654199863	162.446632500803	0.0499783009399835	175184
175.284	50	546	0	0	trashcan	1704	237	1	stimuli\trashcan\trashcan_01b.jpg	0	-1	1	0	trashcan_01b.jpg	0	0.0	0	162.496651517959	162.546632500806	0.0499809828470461	175284
175.384	50	547	0	0	snowshoe	1485	238	1	stimuli\snowshoe\snowshoe_01b.jpg	0	-1	1	0	snowshoe_01b.jpg	0	0.0	0	162.596644935096	162.646639571285	0.0499946361887851	175384
175.484	50	548	0	0	marmalade	976	239	1	stimuli\marmalade\marmalade_03s.jpg	2	-1	1	0	marmalade_03s.jpg	0	0.0	0	162.696662001774	162.746639083667	0.049977081893303	175484
175.584	50	549	0	0	icepick	822	240	1	stimuli\icepick\icepick_07s.jpg	6	-1	1	0	icepick_07s.jpg	0	0.0	0	162.796637864616	162.846639571286	0.0500017066697183	175584
175.684	50	550	0	0	cruise_ship	450	241	1	stimuli\cruise_ship\cruise_ship_02s.jpg	1	-1	1	0	cruise_ship_02s.jpg	0	0.0	0	162.896671266542	162.946632256993	0.0499609904509271	175684
175.784	50	551	0	0	stockings	1559	242	1	stimuli\stockings\stockings_01b.jpg	0	-1	1	0	stockings_01b.jpg	0	0.0	0	162.996663952254	163.046646154147	0.0499822018937266	175784
175.884	50	552	0	0	cereal	297	243	1	stimuli\cereal\cereal_09s.jpg	8	-1	1	0	cereal_09s.jpg	0	0.0	0	163.096668584636	163.146652737007	0.0499841523705982	175884
175.984	50	553	0	0	footprint	632	244	1	stimuli\footprint\footprint_07s.jpg	6	-1	1	0	footprint_07s.jpg	0	0.0	0	163.196668340825	163.246650055102	0.0499817142772372	175984
176.084	50	554	0	0	blimp	139	245	1	stimuli\blimp\blimp_06s.jpg	5	-1	1	0	blimp_06s.jpg	0	0.0	0	163.296670047494	163.346661270345	0.0499912228515313	176084
176.184	50	555	0	0	loveseat	947	246	1	stimuli\loveseat\loveseat_07s.jpg	6	-1	1	0	loveseat_07s.jpg	0	0.0	0	163.39666834082502	163.446664196061	0.0499958552354656	176184
176.284	50	556	0	0	shuffleboard	1439	247	1	stimuli\shuffleboard\shuffleboard_11s.jpg	10	-1	1	0	shuffleboard_11s.jpg	0	0.0	0	163.496677117975	163.54666102653601	0.0499839085605345	176284
176.384	50	557	0	0	landmine	894	248	1	stimuli\landmine\landmine_05s.jpg	4	-1	1	0	landmine_05s.jpg	0	0.0	0	163.596685651311	163.64666346463102	0.0499778133198561	176384
176.484	50	558	0	0	mop	1019	249	1	stimuli\mop\mop_01b.jpg	0	-1	1	0	mop_01b.jpg	0	0.0	0	163.696673460829	163.746661757967	0.049988297138043	176484
176.584	50	559	0	0	barcode	73	250	1	stimuli\barcode\barcode_04s.jpg	3	-1	1	0	barcode_04s.jpg	0	0.0	0	163.796686382742	163.84666541510902	0.0499790323665366	176584
176.684	50	560	0	0	shaving_cream	1410	251	1	stimuli\shaving_cream\shaving_cream_03s.jpg	2	-1	1	0	shaving_cream_03s.jpg	0	0.0	0	163.896690771315	163.946669072255	0.0499783009399835	176684
176.784	50	561	0	0	bandanna	67	252	1	stimuli\bandanna\bandanna_11s.jpg	10	-1	1	0	bandanna_11s.jpg	0	0.0	0	163.996691015127	164.046672973211	0.0499819580836629	176784
176.884	50	562	0	0	pearl	1134	253	1	stimuli\pearl\pearl_01b.jpg	0	-1	1	0	pearl_01b.jpg	0	0.0	0	164.096692234176	164.14668004369	0.0499878095142776	176884
176.984	50	563	0	0	moccasin	1010	254	1	stimuli\moccasin\moccasin_02s.jpg	1	-1	1	0	moccasin_02s.jpg	0	0.0	0	164.196701011322	164.246679312262	0.0499783009399835	176984
177.084	50	564	0	0	alligator	12	255	1	stimuli\alligator\alligator_03n.jpg	2	-1	1	0	alligator_03n.jpg	0	0.0	0	164.296706131325	164.346682237978	0.0499761066530482	177084
177.184	50	565	0	0	skin	1456	256	1	stimuli\skin\skin_04s.jpg	3	-1	1	0	skin_04s.jpg	0	0.0	0	164.396708081804	164.446701498942	0.0499934171384666	177184
177.284	50	566	0	0	toothpaste	1680	257	1	stimuli\toothpaste\toothpaste_01b.jpg	0	-1	1	0	toothpaste_01b.jpg	0	0.0	0	164.496721491334	164.546687845599	0.0499663542650524	177284
177.384	50	567	0	0	wrench	1841	258	1	stimuli\wrench\wrench_10s.jpg	9	-1	1	0	wrench_10s.jpg	0	0.0	0	164.596729780864	164.646691990365	0.0499622095012455	177384
177.484	50	568	0	0	cockroach	373	259	1	stimuli\cockroach\cockroach_08s.jpg	7	-1	1	0	cockroach_08s.jpg	0	0.0	0	164.69670905703998	164.746693453224	0.0499843961842998	177484
177.584	50	569	0	0	cilantro	347	260	1	stimuli\cilantro\cilantro_05s.jpg	4	-1	1	0	cilantro_05s.jpg	0	0.0	0	164.796716615143	164.84669662275	0.0499800076067913	177584
177.684	50	570	0	0	sifter	1443	261	1	stimuli\sifter\sifter_09s.jpg	8	-1	1	0	sifter_09s.jpg	0	0.0	0	164.896714908475	164.946688577031	0.0499736685560492	177684
177.784	50	571	0	0	pocketknife	1207	262	1	stimuli\pocketknife\pocketknife_03s.jpg	2	-1	1	0	pocketknife_03s.jpg	0	0.0	0	164.99671710276002	165.046703205608	0.0499861028474697	177784
177.884	50	572	0	0	mongoose	1016	263	1	stimuli\mongoose\mongoose_06s.jpg	5	-1	1	0	mongoose_06s.jpg	0	0.0	0	165.09672466086	165.146707350374	0.049982689513854005	177884
177.984	50	573	0	0	trough	1718	264	1	stimuli\trough\trough_05s.jpg	4	-1	1	0	trough_05s.jpg	0	0.0	0	165.196725879909	165.246706131325	0.049980251416855005	177984
178.084	50	574	0	0	pot	1230	265	1	stimuli\pot\pot_08s.jpg	7	-1	1	0	pot_08s.jpg	0	0.0	0	165.296724904671	165.346707837994	0.0499829333239177	178084
178.184	50	575	0	0	paperclip	1116	266	1	stimuli\paperclip\paperclip_09s.jpg	8	-1	1	0	paperclip_09s.jpg	1	0.0	0	165.396734169437	165.446758306596	0.0500241371591983	178184
178.284	50	576	0	0	lettuce	920	267	1	stimuli\lettuce\lettuce_10n.jpg	9	-1	1	0	lettuce_10n.jpg	0	0.0	0	165.496748310397	165.546707837992	0.0499595275941829	178284
178.384	50	577	0	0	razor	1290	268	1	stimuli\razor\razor_09s.jpg	8	-1	1	0	razor_09s.jpg	0	0.0	0	165.596742458965	165.646725148479	0.049982689513854005	178384
178.484	50	578	0	0	hippopotamus	781	269	1	stimuli\hippopotamus\hippopotamus_12s.jpg	11	-1	1	0	hippopotamus_12s.jpg	0	0.0	0	165.69674002087	165.746718809427	0.0499787885564729	178484
178.584	50	579	0	0	key	869	270	1	stimuli\key\key_12s.jpg	11	-1	1	0	key_12s.jpg	0	0.0	0	165.796735388485	165.84671929704902	0.0499839085641725	178584
178.684	50	580	0	0	prune	1244	271	1	stimuli\prune\prune_01b.jpg	0	-1	1	0	prune_01b.jpg	0	0.0	0	165.896740020871	165.946727830385	0.0499878095142776	178684
178.784	50	581	0	0	stilt	1555	272	1	stimuli\stilt\stilt_03s.jpg	2	-1	1	0	stilt_03s.jpg	0	0.0	0	165.996745140874	166.046724904671	0.0499797637967276	178784
178.884	50	582	0	0	rock	1319	273	1	stimuli\rock\rock_04s.jpg	3	-1	1	0	rock_04s.jpg	0	0.0	0	166.096743678016	166.14673173134	0.0499880533243413	178884
178.984	50	583	0	0	lip_balm	934	274	1	stimuli\lip_balm\lip_balm_01b.jpg	0	-1	1	0	lip_balm_01b.jpg	0	0.0	0	166.196750260875	166.246730024672	0.0499797637967276	178984
179.084	50	584	0	0	doorknob	509	275	1	stimuli\doorknob\doorknob_02s.jpg	1	-1	1	0	doorknob_02s.jpg	0	0.0	0	166.296755137071	166.346720028476	0.0499648914046702	179084
179.184	50	585	0	0	mannequin	968	276	1	stimuli\mannequin\mannequin_07s.jpg	6	-1	1	0	mannequin_07s.jpg	0	0.0	0	166.396735388487	166.44675464944902	0.0500192609615624	179184
179.284	50	586	0	0	arm	36	277	1	stimuli\arm\arm_05s.jpg	4	-1	1	0	arm_05s.jpg	0	0.0	0	166.496761476123	166.54675635611798	0.0499948799952108	179284
179.384	50	587	0	0	seatbelt	1399	278	1	stimuli\seatbelt\seatbelt_02s.jpg	1	-1	1	0	seatbelt_02s.jpg	0	0.0	0	166.596761476121	166.64674635992202	0.0499848838007892	179384
179.484	50	588	0	0	croissant	442	279	1	stimuli\croissant\croissant_12s.jpg	11	-1	1	0	croissant_12s.jpg	0	0.0	0	166.69676854660102	166.746748554207	0.0499800076067913	179484
179.584	50	589	0	0	tab	1607	280	1	stimuli\tab\tab_07s.jpg	6	-1	1	0	tab_07s.jpg	0	0.0	0	166.796769521839	166.846751479923	0.0499819580836629	179584
179.684	50	590	0	0	bathtub	91	281	1	stimuli\bathtub\bathtub_06s.jpg	5	-1	1	0	bathtub_06s.jpg	0	0.0	0	166.896786588517	166.946767327554	0.0499807390369824	179684
179.784	50	591	0	0	plate	1197	282	1	stimuli\plate\plate_06s.jpg	5	-1	1	0	plate_06s.jpg	0	0.0	0	166.996789514233	167.04675245516398	0.0499629409314366	179784
179.884	50	592	0	0	hearing_aid	770	283	1	stimuli\hearing_aid\hearing_aid_09s.jpg	8	-1	1	0	hearing_aid_09s.jpg	0	0.0	0	167.096795121855	167.146774641842	0.0499795199866639	179884
179.984	50	593	0	0	stir_fry	1557	284	1	stimuli\stir_fry\stir_fry_10s.jpg	9	-1	1	0	stir_fry_10s.jpg	0	0.0	0	167.196795121858	167.24675855040599	0.049963428547925993	179984
180.084	50	594	0	0	generator	671	285	1	stimuli\generator\generator_09s.jpg	8	-1	1	0	generator_09s.jpg	0	0.0	0	167.29680024186	167.34676805898198	0.0499678171217965	180084
180.184	50	595	0	0	box	181	286	1	stimuli\box\box_11s.jpg	10	-1	1	0	box_11s.jpg	0	0.0	0	167.396780249466	167.446758306596	0.0499780571299198	180184
180.284	50	596	0	0	nacho	1045	287	1	stimuli\nacho\nacho_02s.jpg	1	-1	1	0	nacho_02s.jpg	0	0.0	0	167.496783662802	167.54676025707198	0.0499765942695376	180284
180.384	50	597	0	0	spring_roll	1521	288	1	stimuli\spring_roll\spring_roll_01b.jpg	0	-1	1	0	spring_roll_01b.jpg	0	0.0	0	167.59679975423902	167.646772447555	0.0499726933157945	180384
180.484	50	598	0	0	pet_food	1157	289	1	stimuli\pet_food\pet_food_06s.jpg	5	-1	1	0	pet_food_06s.jpg	0	0.0	0	167.696786344706	167.74677147231702	0.0499851276108529	180484
180.584	50	599	0	0	figurine	582	290	1	stimuli\figurine\figurine_08s.jpg	7	-1	1	0	figurine_08s.jpg	0	0.0	0	167.796794146616	167.84677634851002	0.0499822018937266	180584
180.684	50	600	0	0	raincoat	1279	291	1	stimuli\raincoat\raincoat_05s.jpg	4	-1	1	0	raincoat_05s.jpg	0	0.0	0	167.89680024185898	167.946774398035	0.0499741561761766	180684
180.784	50	601	0	0	mistletoe	1007	292	1	stimuli\mistletoe\mistletoe_08s.jpg	7	-1	1	0	mistletoe_08s.jpg	0	0.0	0	167.99679829138	168.046779030417	0.0499807390369824	180784
180.884	50	602	0	0	handlebar	749	293	1	stimuli\handlebar\handlebar_05s.jpg	4	-1	1	0	handlebar_05s.jpg	0	0.0	0	168.096808043767	168.146786588517	0.0499785447500471	180884
180.984	50	603	0	0	doghouse	497	294	1	stimuli\doghouse\doghouse_07s.jpg	6	-1	1	0	doghouse_07s.jpg	0	0.0	0	168.19680048566798	168.24678268756202	0.0499822018937266	180984
181.084	50	604	0	0	jewel	849	295	1	stimuli\jewel\jewel_06s.jpg	5	-1	1	0	jewel_06s.jpg	0	0.0	0	168.296785125658	168.346804630433	0.0500195047752641	181084
181.184	50	605	0	0	broccoli	201	296	1	stimuli\broccoli\broccoli_02s.jpg	1	-1	1	0	broccoli_02s.jpg	0	0.0	0	168.39680926281702	168.446782687563	0.0499734247459855	181184
181.284	50	606	0	0	traffic_light	1696	297	1	stimuli\traffic_light\traffic_light_06s.jpg	5	-1	1	0	traffic_light_06s.jpg	0	0.0	0	168.496828767591	168.546811457105	0.049982689513854005	181284
181.384	50	607	0	0	crab	428	298	1	stimuli\crab\crab_01b.jpg	0	-1	1	0	crab_01b.jpg	0	0.0	0	168.596816577108	168.64679926661802	0.049982689510216	181384
181.484	50	608	0	0	crouton	445	299	1	stimuli\crouton\crouton_10n.jpg	9	-1	1	0	crouton_10n.jpg	0	0.0	0	168.696809994246	168.746799022811	0.0499890285645961	181484
181.584	50	609	0	0	hedgehog	774	300	1	stimuli\hedgehog\hedgehog_10s.jpg	9	-1	1	0	hedgehog_10s.jpg	0	0.0	0	168.796819015202	168.846809019007	0.0499900038048509	181584
