onset	duration	eventnumber	blocksequencenumber	isteststim	object	objectnumber	presentationnumber	sequencenumber	stim	stimnumber	teststimnumber	withinsequencenumber	istarget	stimname	response	rt	correct	time_stimon	time_stimoff	stimdur	sample
12.169	50	0	0	0	rice	1309	0	0	stimuli\rice\rice_10s.jpg	9	-1	0	0	rice_10s.jpg	0	0.0	0	337.411971972644	337.461949505581	0.0499775329371914	12169
12.269	50	1	0	0	kangaroo	862	1	0	stimuli\kangaroo\kangaroo_08s.jpg	7	-1	0	0	kangaroo_08s.jpg	0	0.0	0	337.51197945757303	337.561951139098	0.0499716815247666	12269
12.369	50	2	0	0	kneepad	878	2	0	stimuli\kneepad\kneepad_11s.jpg	10	-1	0	0	kneepad_11s.jpg	0	0.0	0	337.61197450824	337.661948871682	0.0499743634427432	12369
12.469	50	3	0	0	steamroller	1545	3	0	stimuli\steamroller\steamroller_05n.jpg	4	-1	0	0	steamroller_05n.jpg	0	0.0	0	337.71199637797	337.761959038529	0.0499626605596859	12469
12.569	50	4	0	0	snowmobile	1483	4	0	stimuli\snowmobile\snowmobile_02s.jpg	1	-1	0	0	snowmobile_02s.jpg	0	0.0	0	337.811977531499	337.861942630145	0.0499650986457709	12569
12.669	50	5	0	0	bubble_wrap	208	5	0	stimuli\bubble_wrap\bubble_wrap_02s.jpg	1	-1	0	0	bubble_wrap_02s.jpg	0	0.0	0	337.912003302161	337.962384827435	0.0503815252741333	12669
12.769	50	6	0	0	blackberry	135	6	0	stimuli\blackberry\blackberry_09n.jpg	8	-1	0	0	blackberry_09n.jpg	0	0.0	0	338.01197226520196	338.061966133391	0.049993868189630995	12769
12.869	50	7	0	0	handprint	750	7	0	stimuli\handprint\handprint_10s.jpg	9	-1	0	0	handprint_10s.jpg	0	0.0	0	338.111989502533	338.161965572624	0.0499760700913612	12869
12.969	50	8	0	0	shortbread	1429	8	0	stimuli\shortbread\shortbread_09s.jpg	8	-1	0	0	shortbread_09s.jpg	0	0.0	0	338.211990892247	338.261953065201	0.0499621729541104	12969
13.069	50	9	0	0	luggage	948	9	0	stimuli\luggage\luggage_11s.jpg	10	-1	0	0	luggage_11s.jpg	0	0.0	0	338.311972777214	338.361967376812	0.0499945995979942	13069
13.169	50	10	0	0	headrest	767	10	0	stimuli\headrest\headrest_10s.jpg	9	-1	0	0	headrest_10s.jpg	0	0.0	0	338.41198952691	338.46197169224604	0.0499821653356776	13169
13.269	50	11	0	0	bathmat	89	11	0	stimuli\bathmat\bathmat_12s.jpg	11	-1	0	0	bathmat_12s.jpg	0	0.0	0	338.511992867105	338.561977470526	0.0499846034217626	13269
13.369	50	12	0	0	puck	1245	12	0	stimuli\puck\puck_10s.jpg	9	-1	0	0	puck_10s.jpg	0	0.0	0	338.611978896835	338.661967888824	0.0499889919883572	13369
13.469	50	13	0	0	satellite_dish	1361	13	0	stimuli\satellite_dish\satellite_dish_03s.jpg	2	-1	0	0	satellite_dish_03s.jpg	0	0.0	0	338.71198394367804	338.761977568065	0.0499936243868433	13469
13.569	50	14	0	0	cinnamon	348	14	0	stimuli\cinnamon\cinnamon_08n.jpg	7	-1	0	0	cinnamon_08n.jpg	0	0.0	0	338.811984601954	338.861980908259	0.0499963063048199	13569
13.669	50	15	0	0	poinsettia	1209	15	0	stimuli\poinsettia\poinsettia_04s.jpg	3	-1	0	0	poinsettia_04s.jpg	0	0.0	0	338.91200500881	338.961980835098	0.0499758262885734	13669
13.769	50	16	0	0	grass	705	16	0	stimuli\grass\grass_02s.jpg	1	-1	0	0	grass_02s.jpg	0	0.0	0	339.012001278519	339.061983687687	0.0499824091675691	13769
13.869	50	17	0	0	generator	671	17	0	stimuli\generator\generator_12s.jpg	11	-1	0	0	generator_12s.jpg	0	0.0	0	339.112004618713	339.161987759289	0.0499831405759323	13869
13.969	50	18	0	0	egg	546	18	0	stimuli\egg\egg_08s.jpg	7	-1	0	0	egg_08s.jpg	0	0.0	0	339.21200722747	339.261987198523	0.0499799710523803	13969
14.069	50	19	0	0	ski_lift	1454	19	0	stimuli\ski_lift\ski_lift_05s.jpg	4	-1	0	0	ski_lift_05s.jpg	0	0.0	0	339.312011055299	339.36199175776	0.0499807024607435	14069
14.169	50	20	0	0	gingerbread_man	674	20	0	stimuli\gingerbread_man\gingerbread_man_09s.jpg	8	-1	0	0	gingerbread_man_09s.jpg	0	0.0	0	339.41201415166097	339.461996316997	0.0499821653356776	14169
14.269	50	21	0	0	radish	1274	21	0	stimuli\radish\radish_07s.jpg	6	-1	0	0	radish_07s.jpg	0	0.0	0	339.512013834727	339.561995756259	0.0499819215328898	14269
14.369	50	22	0	0	soccer_ball	1488	22	0	stimuli\soccer_ball\soccer_ball_12s.jpg	11	-1	0	0	soccer_ball_12s.jpg	0	0.0	0	339.612017662526	339.662000071665	0.0499824091384653	14369
14.469	50	23	0	0	football_helmet	630	23	0	stimuli\football_helmet\football_helmet_10s.jpg	9	-1	0	0	football_helmet_10s.jpg	0	0.0	0	339.712022709398	339.762004143297	0.0499814338982105	14469
14.569	50	24	0	0	mannequin	968	24	0	stimuli\mannequin\mannequin_12s.jpg	11	-1	0	0	mannequin_12s.jpg	0	0.0	0	339.812025074352	339.86200650825003	0.0499814338982105	14569
14.669	50	25	0	0	stove2	1564	25	0	stimuli\stove2\stove2_10s.jpg	9	-1	0	0	stove2_10s.jpg	0	0.0	0	339.912029389758	339.962008141767	0.0499787520093378	14669
14.769	50	26	0	0	place_mat	1193	26	0	stimuli\place_mat\place_mat_04s.jpg	3	-1	0	0	place_mat_04s.jpg	0	0.0	0	340.012030779471	340.062010750524	0.0499799710523803	14769
14.869	50	27	0	0	ice_pack	820	27	0	stimuli\ice_pack\ice_pack_08s.jpg	7	-1	0	0	ice_pack_08s.jpg	0	0.0	0	340.112057769205	340.162011652632	0.0499538834264968	14869
14.969	50	28	0	0	cucumber	457	28	0	stimuli\cucumber\cucumber_04s.jpg	3	-1	0	0	cucumber_04s.jpg	0	0.0	0	340.212033315096	340.262014017586	0.0499807024898473	14969
15.069	50	29	0	0	punch2	1255	29	0	stimuli\punch2\punch2_03s.jpg	2	-1	0	0	punch2_03s.jpg	0	0.0	0	340.31203665529	340.362018820626	0.0499821653356776	15069
15.169	50	30	0	0	boulder	172	30	0	stimuli\boulder\boulder_11s.jpg	10	-1	0	0	boulder_11s.jpg	0	0.0	0	340.412043165008	340.462024111301	0.0499809462926351	15169
15.269	50	31	0	0	orchid	1081	31	0	stimuli\orchid\orchid_05s.jpg	4	-1	0	0	orchid_05s.jpg	0	0.0	0	340.512041872804	340.562027695298	0.0499858224939089	15269
15.369	50	32	0	0	microwave	1000	32	0	stimuli\microwave\microwave_02s.jpg	1	-1	0	0	microwave_02s.jpg	0	0.0	0	340.612043018715	340.662026159291	0.0499831405759323	15369
15.469	50	33	0	0	cauliflower	288	33	0	stimuli\cauliflower\cauliflower_09s.jpg	8	-1	0	0	cauliflower_09s.jpg	0	0.0	0	340.712048065587	340.762029987091	0.049981921503786	15469
15.569	50	34	0	0	landmine	894	34	0	stimuli\landmine\landmine_09s.jpg	8	-1	0	0	landmine_09s.jpg	0	0.0	0	340.812049942906	340.862037228246	0.0499872853397392	15569
15.669	50	35	0	0	orange	1078	35	0	stimuli\orange\orange_12s.jpg	11	-1	0	0	orange_12s.jpg	0	0.0	0	340.91205182025396	340.962038861762	0.0499870415078476	15669
15.769	50	36	0	0	donkey	504	36	0	stimuli\donkey\donkey_03s.jpg	2	-1	0	0	donkey_03s.jpg	0	0.0	0	341.012057842338	341.06203976387	0.0499819215328898	15769
15.869	50	37	0	0	anklet	23	37	0	stimuli\anklet\anklet_03s.jpg	2	-1	0	0	anklet_03s.jpg	0	0.0	0	341.112067277776	341.162040665949	0.0499733881733846	15869
15.969	50	38	0	0	hinge	779	38	0	stimuli\hinge\hinge_12s.jpg	11	-1	0	0	hinge_12s.jpg	0	0.0	0	341.21206013412996	341.262044737581	0.0499846034508664	15969
16.069	50	39	0	0	headphones	766	39	0	stimuli\headphones\headphones_09s.jpg	8	-1	0	0	headphones_09s.jpg	0	0.0	0	341.312063718156	341.362044420617	0.0499807024607435	16069
16.169	50	40	0	0	snow	1479	40	0	stimuli\snow\snow_12s.jpg	11	-1	0	0	snow_12s.jpg	0	0.0	0	341.412067302153	341.462047029374	0.0499797272204887	16169
16.269	50	41	0	0	painting	1098	41	0	stimuli\painting\painting_02s.jpg	1	-1	0	0	painting_02s.jpg	0	0.0	0	341.51206991091	341.562053539092	0.0499836281815078	16269
16.37	50	42	0	0	sewage	1405	42	0	stimuli\sewage\sewage_01b.jpg	0	-1	0	0	sewage_01b.jpg	0	0.0	0	341.612076664431	341.66205395356496	0.0499772891344037	16370
16.469	50	43	0	0	vulture	1768	43	0	stimuli\vulture\vulture_11s.jpg	10	-1	0	0	vulture_11s.jpg	0	0.0	0	341.712073909381	341.76205558711104	0.0499816777301021	16469
16.57	50	44	0	0	puppy	1258	44	0	stimuli\puppy\puppy_05s.jpg	4	-1	0	0	puppy_05s.jpg	0	0.0	0	341.812077737181	341.862059658713	0.0499819215328898	16570
16.67	50	45	0	0	mud	1033	45	0	stimuli\mud\mud_05s.jpg	4	-1	0	0	mud_05s.jpg	0	0.0	0	341.912085465941	341.962065193191	0.0499797272495925	16670
16.77	50	46	0	0	backscratcher	50	46	0	stimuli\backscratcher\backscratcher_02s.jpg	1	-1	0	0	backscratcher_02s.jpg	0	0.0	0	342.012085392809	342.062063657184	0.0499782643746585	16770
16.869	50	47	0	0	chainsaw	299	47	0	stimuli\chainsaw\chainsaw_01b.jpg	0	-1	0	0	chainsaw_01b.jpg	0	0.0	0	342.11208556348	342.162069679296	0.0499841158161871	16869
16.97	50	48	0	0	margarita	973	48	0	stimuli\margarita\margarita_06s.jpg	5	-1	0	0	margarita_06s.jpg	0	0.0	0	342.212087440799	342.262066436611	0.0499789958121255	16970
17.07	50	49	0	0	bucket	209	49	0	stimuli\bucket\bucket_01b.jpg	0	-1	0	0	bucket_01b.jpg	0	0.0	0	342.312090049556	342.362069533003	0.0499794834468048	17070
17.17	50	50	0	0	doorstop	512	50	0	stimuli\doorstop\doorstop_12s.jpg	11	-1	0	0	doorstop_12s.jpg	0	0.0	0	342.412098753557	342.46207409224	0.049975338682998	17170
17.27	50	51	0	0	cable	234	51	0	stimuli\cable\cable_09s.jpg	8	-1	0	0	cable_09s.jpg	0	0.0	0	342.512097948988	342.562077676237	0.0499797272495925	17270
17.37	50	52	0	0	squirt_gun	1530	52	0	stimuli\squirt_gun\squirt_gun_09s.jpg	8	-1	0	0	squirt_gun_09s.jpg	0	0.0	0	342.61209982633596	342.662081260234	0.0499814338982105	17370
17.47	50	53	0	0	canoe	262	53	0	stimuli\canoe\canoe_05s.jpg	4	-1	0	0	canoe_05s.jpg	0	0.0	0	342.71210219129	342.76208191851003	0.0499797272204887	17470
17.57	50	54	0	0	lipstick	936	54	0	stimuli\lipstick\lipstick_08s.jpg	7	-1	0	0	lipstick_08s.jpg	0	0.0	0	342.812105287652	342.862111102528	0.0500058148754761	17570
17.67	50	55	0	0	bowl	177	55	0	stimuli\bowl\bowl_01b.jpg	0	-1	0	0	bowl_01b.jpg	0	0.0	0	342.91210545832297	342.962087136053	0.0499816777301021	17670
17.77	50	56	0	0	calculator	240	56	0	stimuli\calculator\calculator_08s.jpg	7	-1	0	0	calculator_08s.jpg	0	0.0	0	343.01211001756	343.062090963853	0.0499809462926351	17770
17.87	50	57	0	0	suit	1580	57	0	stimuli\suit\suit_02s.jpg	1	-1	0	0	suit_02s.jpg	0	0.0	0	343.112116039672	343.162097473571	0.0499814338982105	17870
17.97	50	58	0	0	hourglass	807	58	0	stimuli\hourglass\hourglass_12s.jpg	11	-1	0	0	hourglass_12s.jpg	0	0.0	0	343.212117185554	343.262100082327	0.0499828967731446	17970
18.07	50	59	0	0	fish	600	59	0	stimuli\fish\fish_10s.jpg	9	-1	0	0	fish_10s.jpg	0	0.0	0	343.312120038143	343.362099033955	0.0499789958121255	18070
18.17	50	60	0	0	scorpion	1384	60	0	stimuli\scorpion\scorpion_05s.jpg	4	-1	0	0	scorpion_05s.jpg	0	0.0	0	343.412121184054	343.462102130317	0.0499809462635312	18170
18.27	50	61	0	0	cocktail	374	61	0	stimuli\cocktail\cocktail_01b.jpg	0	-1	0	0	cocktail_01b.jpg	0	0.0	0	343.51212184233	343.562104739103	0.0499828967731446	18270
18.37	50	62	0	0	gurney	728	62	0	stimuli\gurney\gurney_05s.jpg	4	-1	0	1	gurney_05s.jpg	0	0.0	0	343.612132740614	343.66210905450896	0.0499763138941489	18370
18.47	50	63	0	0	lighter	928	63	0	stimuli\lighter\lighter_08s.jpg	7	-1	0	0	lighter_08s.jpg	0	0.0	0	343.71213120460703	343.762118002342	0.0499867977341637	18470
18.57	50	64	0	0	jukebox	857	64	0	stimuli\jukebox\jukebox_09s.jpg	8	-1	0	0	jukebox_09s.jpg	0	0.0	0	343.812132106716	343.862113540614	0.0499814338982105	18570
18.67	50	65	0	0	windshield_wiper	1821	65	0	stimuli\windshield_wiper\windshield_wiper_03s.jpg	2	-1	0	0	windshield_wiper_03s.jpg	0	0.0	0	343.912133008795	343.96211517412996	0.0499821653356776	18670
18.77	50	66	0	0	finger	588	66	0	stimuli\finger\finger_11s.jpg	10	-1	0	0	finger_11s.jpg	1	0.39216830267105296	1	344.012137811864	344.06212168384803	0.0499838719842955	18770
18.87	50	67	0	0	revolver	1304	67	0	stimuli\revolver\revolver_07s.jpg	6	-1	0	0	revolver_07s.jpg	0	0.0	0	344.112141395861	344.162127218326	0.0499858224648051	18870
18.97	50	68	0	0	earring	540	68	0	stimuli\earring\earring_01b.jpg	0	-1	0	0	earring_01b.jpg	0	0.0	0	344.21214229794	344.262121781387	0.0499794834468048	18970
19.07	50	69	0	0	clover	366	69	0	stimuli\clover\clover_03s.jpg	2	-1	0	0	clover_03s.jpg	0	0.0	0	344.312151001941	344.36212780347	0.0499768015288282	19070
19.17	50	70	0	0	ladle	887	70	0	stimuli\ladle\ladle_11s.jpg	10	-1	0	0	ladle_11s.jpg	0	0.0	0	344.412147027848	344.462130168424	0.0499831405759323	19170
19.27	50	71	0	0	wasp	1785	71	0	stimuli\wasp\wasp_08s.jpg	7	-1	0	0	wasp_08s.jpg	0	0.0	0	344.51214988040704	344.56213180194	0.0499819215328898	19270
19.37	50	72	0	0	shears	1412	72	0	stimuli\shears\shears_11s.jpg	10	-1	0	0	shears_11s.jpg	0	0.0	0	344.61215200155897	344.66213904309603	0.0499870415369514	19370
19.47	50	73	0	0	sheath	1413	73	0	stimuli\sheath\sheath_08s.jpg	7	-1	0	0	sheath_08s.jpg	0	0.0	0	344.712159242714	344.762142627093	0.0499833843787201	19470
19.57	50	74	0	0	chips	335	74	0	stimuli\chips\chips_01b.jpg	0	-1	0	0	chips_01b.jpg	0	0.0	0	344.81215697526903	344.86214060348	0.0499836282106116	19570
19.67	50	75	0	0	shorts	1430	75	0	stimuli\shorts\shorts_11s.jpg	10	-1	0	0	shorts_11s.jpg	0	0.0	0	344.91216275355004	344.96214150555903	0.0499787520093378	19670
19.77	50	76	0	0	headdress	763	76	0	stimuli\headdress\headdress_01b.jpg	0	-1	0	0	headdress_01b.jpg	0	0.0	0	345.01216975090205	345.062145577191	0.0499758262885734	19770
19.87	50	77	0	0	bomb	160	77	0	stimuli\bomb\bomb_09s.jpg	8	-1	0	0	bomb_09s.jpg	0	0.0	0	345.112167971092	345.162150624034	0.049982652941253	19870
19.97	50	78	0	0	dish	489	78	0	stimuli\dish\dish_05s.jpg	4	-1	0	0	dish_05s.jpg	0	0.0	0	345.212170336046	345.26215591470805	0.0499855786620174	19970
20.07	50	79	0	0	odometer	1071	79	0	stimuli\odometer\odometer_04s.jpg	3	-1	0	0	odometer_04s.jpg	0	0.0	0	345.31217392004305	345.362155597744	0.0499816777009983	20070
20.17	50	80	0	0	sofa_bed	1492	80	0	stimuli\sofa_bed\sofa_bed_09s.jpg	8	-1	0	0	sofa_bed_09s.jpg	0	0.0	0	345.41217628499703	345.462154793175	0.0499785081774462	20170
20.27	50	81	0	0	phone_booth	1162	81	0	stimuli\phone_booth\phone_booth_09s.jpg	8	-1	0	0	phone_booth_09s.jpg	0	0.0	0	345.512177674711	345.562157889566	0.049980214855167994	20270
20.37	50	82	0	0	doorhandle	508	82	0	stimuli\doorhandle\doorhandle_04s.jpg	3	-1	0	0	doorhandle_04s.jpg	0	0.0	0	345.61218515964	345.662160985928	0.0499758262885734	20370
20.47	50	83	0	0	flyswatter	623	83	0	stimuli\flyswatter\flyswatter_04s.jpg	3	-1	0	0	flyswatter_04s.jpg	0	0.0	0	345.712182648422	345.7621660328	0.0499833843787201	20470
20.57	50	84	0	0	spider_web	1514	84	0	stimuli\spider_web\spider_web_06s.jpg	5	-1	0	0	spider_web_06s.jpg	0	0.0	0	345.812187207659	345.86217059203796	0.0499833843787201	20570
20.67	50	85	0	0	balance_beam	58	85	0	stimuli\balance_beam\balance_beam_07s.jpg	6	-1	0	0	balance_beam_07s.jpg	0	0.0	0	345.912194204982	345.962176370318	0.0499821653356776	20670
20.77	50	86	0	0	chair	300	86	0	stimuli\chair\chair_11s.jpg	10	-1	0	0	chair_11s.jpg	0	0.0	0	346.01219193756697	346.062170689547	0.0499787519802339	20770
20.87	50	87	0	0	van	1752	87	0	stimuli\van\van_09s.jpg	8	-1	0	0	van_09s.jpg	0	0.0	0	346.112195277761	346.162174029741	0.0499787519802339	20870
20.97	50	88	0	0	turnstile	1734	88	0	stimuli\turnstile\turnstile_10s.jpg	9	-1	0	0	turnstile_10s.jpg	0	0.0	0	346.2121952046	346.262180539459	0.0499853348592296	20970
21.07	50	89	0	0	kitten	875	89	0	stimuli\kitten\kitten_07s.jpg	6	-1	0	0	kitten_07s.jpg	0	0.0	0	346.312200739078	346.36218583013397	0.0499850910564419	21070
21.17	50	90	0	0	dishrag	490	90	0	stimuli\dishrag\dishrag_03s.jpg	2	-1	0	0	dishrag_03s.jpg	0	0.0	0	346.41220115355105	346.462183075084	0.0499819215328898	21170
21.27	50	91	0	0	taxi	1630	91	0	stimuli\taxi\taxi_11s.jpg	10	-1	0	0	taxi_11s.jpg	0	0.0	0	346.51220498135103	346.562185683841	0.0499807024898473	21270
21.37	50	92	0	0	handbrake	745	92	0	stimuli\handbrake\handbrake_11s.jpg	10	-1	0	0	handbrake_11s.jpg	0	0.0	0	346.612205639656	346.662187073554	0.0499814338982105	21370
21.47	50	93	0	0	tugboat	1725	93	0	stimuli\tugboat\tugboat_07s.jpg	6	-1	0	0	tugboat_07s.jpg	0	0.0	0	346.712209955091	346.76218992614304	0.0499799710523803	21470
21.57	50	94	0	0	blanket	136	94	0	stimuli\blanket\blanket_01b.jpg	0	-1	0	0	blanket_01b.jpg	0	0.0	0	346.81221402669297	346.862196679664	0.0499826529703569	21570
21.67	50	95	0	0	ballot_box	61	95	0	stimuli\ballot_box\ballot_box_11s.jpg	10	-1	0	0	ballot_box_11s.jpg	0	0.0	0	346.91221468497	346.962196118897	0.0499814339273144	21670
21.77	50	96	0	0	stair	1532	96	0	stimuli\stair\stair_04s.jpg	3	-1	0	0	stair_04s.jpg	0	0.0	0	347.01221704992304	347.062199946697	0.0499828967731446	21770
21.87	50	97	0	0	olive	1075	97	0	stimuli\olive\olive_09s.jpg	8	-1	0	0	olive_09s.jpg	0	0.0	0	347.11222575392503	347.16220426213096	0.049978508206550004	21870
21.97	50	98	0	0	train	1698	98	0	stimuli\train\train_05s.jpg	4	-1	0	0	train_05s.jpg	0	0.0	0	347.212248355063	347.262204676605	0.0499563215416856	21970
22.07	50	99	0	0	speedboat	1511	99	0	stimuli\speedboat\speedboat_10s.jpg	9	-1	0	0	speedboat_10s.jpg	0	0.0	0	347.31222365717997	347.362210211082	0.0499865539022721	22070
22.17	50	100	0	0	pheasant	1160	100	0	stimuli\pheasant\pheasant_09s.jpg	8	-1	0	0	pheasant_09s.jpg	0	0.0	0	347.41223333642097	347.46221208840103	0.0499787519802339	22170
22.27	50	101	0	0	gravy	711	101	0	stimuli\gravy\gravy_09s.jpg	8	-1	0	0	gravy_09s.jpg	0	0.0	0	347.512230825174	347.562214209553	0.0499833843787201	22270
22.37	50	102	0	0	platypus	1198	102	0	stimuli\platypus\platypus_10n.jpg	9	-1	0	0	platypus_10n.jpg	0	0.0	0	347.612233190128	347.662228033558	0.0499948434298858	22370
22.47	50	103	0	0	barnacle	75	103	0	stimuli\barnacle\barnacle_04n.jpg	3	-1	0	0	barnacle_04n.jpg	0	0.0	0	347.712246038893	347.762220646138	0.0499746072455309	22470
22.57	50	104	0	0	crutch	452	104	0	stimuli\crutch\crutch_01b.jpg	0	-1	0	0	crutch_01b.jpg	0	0.0	0	347.812211344804	347.862224230135	0.0500128853309434	22570
22.67	50	105	0	0	hedge	773	105	0	stimuli\hedge\hedge_03s.jpg	2	-1	0	0	hedge_03s.jpg	0	0.0	0	347.91224686783994	347.962229764613	0.0499828967731446	22670
22.77	50	106	0	0	chain	298	106	0	stimuli\chain\chain_04s.jpg	3	-1	0	0	chain_04s.jpg	0	0.0	0	348.01224703851	348.062229935254	0.0499828967440408	22770
22.87	50	107	0	0	seed	1401	107	0	stimuli\seed\seed_04s.jpg	3	-1	0	0	seed_04s.jpg	0	0.0	0	348.11223550632695	348.162215721182	0.049980214855167994	22870
22.97	50	108	0	0	lavender	904	108	0	stimuli\lavender\lavender_01b.jpg	0	-1	0	0	lavender_01b.jpg	0	0.0	0	348.212253475067	348.262221743265	0.0499682681984268	22970
23.07	50	109	0	0	sail	1346	109	0	stimuli\sail\sail_02s.jpg	1	-1	0	0	sail_02s.jpg	0	0.0	0	348.312258521939	348.36222142630095	0.0499629043624736	23070
23.17	50	110	0	0	birthday_cake	132	110	0	stimuli\birthday_cake\birthday_cake_12s.jpg	11	-1	0	0	birthday_cake_12s.jpg	0	0.0	0	348.412259180215	348.46224329603103	0.0499841158161871	23170
23.27	50	111	0	0	chin	330	111	0	stimuli\chin\chin_01b.jpg	0	-1	0	0	chin_01b.jpg	0	0.0	0	348.51224959851197	348.56222640004097	0.0499768015288282	23270
23.37	50	112	0	0	popsicle	1225	112	0	stimuli\popsicle\popsicle_09s.jpg	8	-1	0	0	popsicle_09s.jpg	0	0.0	0	348.61224928154803	348.66224900118	0.0499997196311597	23370
23.47	50	113	0	0	playing_card	1199	113	0	stimuli\playing_card\playing_card_11s.jpg	10	-1	0	0	playing_card_11s.jpg	0	0.0	0	348.71226749412	348.76224819661	0.0499807024898473	23470
23.57	50	114	0	0	baton4	95	114	0	stimuli\baton4\baton4_04s.jpg	3	-1	0	0	baton4_04s.jpg	0	0.0	0	348.812254986697	348.862240077753	0.0499850910564419	23570
23.67	50	115	0	0	papaya	1111	115	0	stimuli\papaya\papaya_08s.jpg	7	-1	0	0	papaya_08s.jpg	0	0.0	0	348.91226905450503	348.962250976037	0.0499819215328898	23670
23.77	50	116	0	0	leash	907	116	0	stimuli\leash\leash_04s.jpg	3	-1	0	0	leash_04s.jpg	0	0.0	0	349.012276051828	349.06225870479796	0.0499826529703569	23770
23.87	50	117	0	0	tee	1636	117	0	stimuli\tee\tee_10s.jpg	9	-1	0	0	tee_10s.jpg	0	0.0	0	349.112272809172	349.16225473070506	0.0499819215328898	23870
23.97	50	118	0	0	alligator	12	118	0	stimuli\alligator\alligator_10s.jpg	9	-1	0	0	alligator_10s.jpg	0	0.0	0	349.21227614936697	349.262257583265	0.0499814338982105	23970
24.07	50	119	0	0	cereal	297	119	0	stimuli\cereal\cereal_11s.jpg	10	-1	0	0	cereal_11s.jpg	0	0.0	0	349.312311184767	349.362259704416	0.0499485196487512	24070
24.17	50	120	0	0	headset	769	120	0	stimuli\headset\headset_05s.jpg	4	-1	0	0	headset_05s.jpg	0	0.0	0	349.412288437365	349.46226670173894	0.0499782643746585	24170
24.27	50	121	0	0	catfish	287	121	0	stimuli\catfish\catfish_10s.jpg	9	-1	0	0	catfish_10s.jpg	0	0.0	0	349.51228787659795	349.56226882289	0.0499809462926351	24270
24.37	50	122	0	0	noodle	1061	122	0	stimuli\noodle\noodle_05s.jpg	4	-1	0	0	noodle_05s.jpg	0	0.0	0	349.61226829868997	349.662272406887	0.0500041081977542	24370
24.47	50	123	0	0	star_fruit	1540	123	0	stimuli\star_fruit\star_fruit_09s.jpg	8	-1	0	0	star_fruit_09s.jpg	0	0.0	0	349.712291875068	349.762271846121	0.0499799710523803	24470
24.57	50	124	0	0	plug	1202	124	0	stimuli\plug\plug_07s.jpg	6	-1	0	0	plug_07s.jpg	0	0.0	0	349.81229253334504	349.862275186315	0.0499826529703569	24570
24.67	50	125	0	0	screw	1390	125	0	stimuli\screw\screw_05s.jpg	4	-1	0	0	screw_05s.jpg	0	0.0	0	349.91229709258204	349.962276088394	0.0499789958121255	24670
24.77	50	126	0	0	spring_roll	1521	126	0	stimuli\spring_roll\spring_roll_09s.jpg	8	-1	0	0	spring_roll_09s.jpg	0	0.0	0	350.01229701945	350.062284060987	0.0499870415369514	24770
24.87	50	127	0	0	sonogram	1496	127	0	stimuli\sonogram\sonogram_06s.jpg	5	-1	0	0	sonogram_06s.jpg	0	0.0	0	350.11230450440803	350.16228496306604	0.0499804586579558	24870
24.97	50	128	0	0	washboard	1782	128	0	stimuli\washboard\washboard_11s.jpg	10	-1	0	0	washboard_11s.jpg	0	0.0	0	350.212305894122	350.262284402299	0.0499785081774462	24970
25.07	50	129	0	0	cookie_cutter	401	129	0	stimuli\cookie_cutter\cookie_cutter_04s.jpg	3	-1	0	0	cookie_cutter_04s.jpg	0	0.0	0	350.312308990484	350.362273113918	0.049964123434620006	25070
25.17	50	130	0	0	bandanna	67	130	0	stimuli\bandanna\bandanna_02s.jpg	1	-1	0	1	bandanna_02s.jpg	0	0.0	0	350.412309161155	350.46229473981697	0.0499855786620174	25170
25.27	50	131	0	0	graffiti	697	131	0	stimuli\graffiti\graffiti_08s.jpg	7	-1	0	0	graffiti_08s.jpg	0	0.0	0	350.512312745152	350.562294422882	0.0499816777301021	25270
25.37	50	132	0	0	shawl	1411	132	0	stimuli\shawl\shawl_03s.jpg	2	-1	0	0	shawl_03s.jpg	0	0.0	0	350.612317548221	350.662293862115	0.0499763138941489	25370
25.47	50	133	0	0	drawer	516	133	0	stimuli\drawer\drawer_03s.jpg	2	-1	0	0	drawer_03s.jpg	0	0.0	0	350.712320156978	350.762296958506	0.0499768015288282	25470
25.57	50	134	0	0	roller_coaster	1325	134	0	stimuli\roller_coaster\roller_coaster_10s.jpg	9	-1	0	0	roller_coaster_10s.jpg	1	0.392151967447717	1	350.81232471621496	350.862301761546	0.049977045331616	25570
25.67	50	135	0	0	space_shuttle	1501	135	0	stimuli\space_shuttle\space_shuttle_10s.jpg	9	-1	0	0	space_shuttle_10s.jpg	0	0.0	0	350.912328544015	350.9623041265	0.0499755824857857	25670
25.77	50	136	0	0	bagel	55	136	0	stimuli\bagel\bagel_09s.jpg	8	-1	0	0	bagel_09s.jpg	0	0.0	0	351.012330665166	351.06231088002096	0.049980214855167994	25770
25.87	50	137	0	0	sundae	1582	137	0	stimuli\sundae\sundae_03s.jpg	2	-1	0	0	sundae_03s.jpg	0	0.0	0	351.112329860596	351.162313244975	0.0499833843787201	25870
25.97	50	138	0	0	bow2	175	138	0	stimuli\bow2\bow2_03s.jpg	2	-1	0	0	bow2_03s.jpg	0	0.0	0	351.21233125031	351.26231073372804	0.049979483417701	25970
26.07	50	139	0	0	loom	946	139	0	stimuli\loom\loom_12s.jpg	11	-1	0	0	loom_12s.jpg	0	0.0	0	351.312336540956	351.362318950123	0.0499824091675691	26070
26.17	50	140	0	0	walnut	1778	140	0	stimuli\walnut\walnut_11s.jpg	10	-1	0	0	walnut_11s.jpg	0	0.0	0	351.412337930669	351.46231717031304	0.0499792396440171	26170
26.27	50	141	0	0	parfait	1119	141	0	stimuli\parfait\parfait_10s.jpg	9	-1	0	0	parfait_10s.jpg	0	0.0	0	351.51233663849405	351.562318560027	0.0499819215328898	26270
26.37	50	142	0	0	sausage	1365	142	0	stimuli\sausage\sausage_05s.jpg	4	-1	0	0	sausage_05s.jpg	0	0.0	0	351.61234314821195	351.662324094505	0.0499809462926351	26370
26.47	50	143	0	0	cow	426	143	0	stimuli\cow\cow_03s.jpg	2	-1	0	0	cow_03s.jpg	0	0.0	0	351.712345025531	351.762328897545	0.0499838720133994	26470
26.57	50	144	0	0	ferris_wheel	579	144	0	stimuli\ferris_wheel\ferris_wheel_03s.jpg	2	-1	0	0	ferris_wheel_03s.jpg	0	0.0	0	351.81234836572503	351.862328092975	0.0499797272495925	26570
26.67	50	145	0	0	dustpan	535	145	0	stimuli\dustpan\dustpan_12s.jpg	11	-1	0	0	dustpan_12s.jpg	0	0.0	0	351.91237047925796	351.962330945535	0.0499604662763886	26670
26.77	50	146	0	0	cardigan	273	146	0	stimuli\cardigan\cardigan_10s.jpg	9	-1	0	0	cardigan_10s.jpg	0	0.0	0	352.01235260802804	352.062333066686	0.0499804586579558	26770
26.87	50	147	0	0	juicer2	856	147	0	stimuli\juicer2\juicer2_09s.jpg	8	-1	0	0	juicer2_09s.jpg	0	0.0	0	352.112354972953	352.16233689448603	0.0499819215328898	26870
26.97	50	148	0	0	coffee_filter	379	148	0	stimuli\coffee_filter\coffee_filter_11s.jpg	10	-1	0	0	coffee_filter_11s.jpg	0	0.0	0	352.212360995065	352.262339990877	0.0499789958121255	26970
27.07	50	149	0	0	asparagus	42	149	0	stimuli\asparagus\asparagus_06s.jpg	5	-1	0	0	asparagus_06s.jpg	0	0.0	0	352.312362872384	352.362346256763	0.0499833843787201	27070
27.17	50	150	0	0	otter	1085	150	0	stimuli\otter\otter_01b.jpg	0	-1	0	0	otter_01b.jpg	0	0.0	0	352.412368163059	352.46234398934797	0.0499758262885734	27170
27.27	50	151	0	0	flip_flop	614	151	0	stimuli\flip_flop\flip_flop_02s.jpg	1	-1	0	0	flip_flop_02s.jpg	0	0.0	0	352.51236370136	352.56234854858496	0.0499848472245503	27270
27.37	50	152	0	0	ski_boots	1453	152	0	stimuli\ski_boots\ski_boots_09s.jpg	8	-1	0	0	ski_boots_09s.jpg	0	0.0	0	352.612371186289	352.66234993829903	0.0499787520093378	27370
27.47	50	153	0	0	dishwasher	491	153	0	stimuli\dishwasher\dishwasher_12n.jpg	11	-1	0	0	dishwasher_12n.jpg	0	0.0	0	352.71237477028603	352.76235547277605	0.0499807024898473	27470
27.57	50	154	0	0	heater	772	154	0	stimuli\heater\heater_10s.jpg	9	-1	0	0	heater_10s.jpg	0	0.0	0	352.81237494095706	352.862357350095	0.0499824091384653	27570
27.67	50	155	0	0	bassinet	85	155	0	stimuli\bassinet\bassinet_04s.jpg	3	-1	0	0	bassinet_04s.jpg	0	0.0	0	352.91237803734805	352.96235800840105	0.0499799710523803	27670
27.77	50	156	0	0	branch	192	156	0	stimuli\branch\branch_04s.jpg	3	-1	0	0	branch_04s.jpg	0	0.0	0	353.012380889908	353.06236012952303	0.0499792396149132	27770
27.87	50	157	0	0	okra	1074	157	0	stimuli\okra\okra_01b.jpg	0	-1	0	0	okra_01b.jpg	0	0.0	0	353.112389106303	353.162364932592	0.0499758262885734	27870
27.97	50	158	0	0	peach	1129	158	0	stimuli\peach\peach_03s.jpg	2	-1	0	0	peach_03s.jpg	0	0.0	0	353.212386595056	353.262367785152	0.0499811900954228	27970
28.07	50	159	0	0	bolt	159	159	0	stimuli\bolt\bolt_05s.jpg	4	-1	0	0	bolt_05s.jpg	0	0.0	0	353.31238993525	353.36237015010596	0.049980214855167994	28070
28.17	50	160	0	0	paint	1096	160	0	stimuli\paint\paint_03s.jpg	2	-1	0	0	paint_03s.jpg	0	0.0	0	353.41239254400705	353.46237373410304	0.0499811900954228	28170
28.27	50	161	0	0	shell2	1418	161	0	stimuli\shell2\shell2_04s.jpg	3	-1	0	0	shell2_04s.jpg	0	0.0	0	353.51239832228697	353.56237171048997	0.0499733882024884	28270
28.37	50	162	0	0	turtleneck	1737	162	0	stimuli\turtleneck\turtleneck_12s.jpg	11	-1	0	0	turtleneck_12s.jpg	0	0.0	0	353.61239654247805	353.66237553829	0.0499789958121255	28370
28.47	50	163	0	0	puppet	1257	163	0	stimuli\puppet\puppet_03s.jpg	2	-1	0	0	puppet_03s.jpg	0	0.0	0	353.71240378363296	353.762385705166	0.0499819215328898	28470
28.57	50	164	0	0	honey	788	164	0	stimuli\honey\honey_06s.jpg	5	-1	0	0	honey_06s.jpg	0	0.0	0	353.812405660952	353.862384169159	0.049978508206550004	28570
28.67	50	165	0	0	file2	584	165	0	stimuli\file2\file2_05s.jpg	4	-1	0	0	file2_05s.jpg	0	0.0	0	353.91240826970903	353.96238677791604	0.049978508206550004	28670
28.77	50	166	0	0	shoehorn	1425	166	0	stimuli\shoehorn\shoehorn_07s.jpg	6	-1	0	0	shoehorn_07s.jpg	0	0.0	0	354.012406733731	354.06238841143204	0.0499816777009983	28770
28.87	50	167	0	0	robe	1317	167	0	stimuli\robe\robe_04s.jpg	3	-1	0	0	robe_04s.jpg	0	0.0	0	354.112409098685	354.16238882590596	0.0499797272204887	28870
28.97	50	168	0	0	almond	13	168	0	stimuli\almond\almond_02s.jpg	1	-1	0	0	almond_02s.jpg	0	0.0	0	354.212411951245	354.262395823258	0.0499838720133994	28970
29.07	50	169	0	0	sundial	1583	169	0	stimuli\sundial\sundial_08s.jpg	7	-1	0	0	sundial_08s.jpg	0	0.0	0	354.312414560001	354.36239696914004	0.0499824091384653	29070
29.17	50	170	0	0	jackhammer	837	170	0	stimuli\jackhammer\jackhammer_09s.jpg	8	-1	0	0	jackhammer_09s.jpg	0	0.0	0	354.41242521448305	354.46239982172796	0.0499746072455309	29170
29.27	50	171	0	0	dumpling	532	171	0	stimuli\dumpling\dumpling_03s.jpg	2	-1	0	0	dumpling_03s.jpg	0	0.0	0	354.51242392227897	354.56240072380797	0.0499768015288282	29270
29.37	50	172	0	0	jalapeno	838	172	0	stimuli\jalapeno\jalapeno_05s.jpg	4	-1	0	0	jalapeno_05s.jpg	0	0.0	0	354.61242214246903	354.662408940203	0.0499867977341637	29370
29.47	50	173	0	0	raspberry	1284	173	0	stimuli\raspberry\raspberry_05s.jpg	4	-1	0	0	raspberry_05s.jpg	0	0.0	0	354.712424751255	354.762409598479	0.0499848472245503	29470
29.57	50	174	0	0	manhole	967	174	0	stimuli\manhole\manhole_04n.jpg	3	-1	0	0	manhole_04n.jpg	0	0.0	0	354.812432967621	354.862411963433	0.0499789958121255	29570
29.67	50	175	0	0	latte	901	175	0	stimuli\latte\latte_07s.jpg	6	-1	0	0	latte_07s.jpg	0	0.0	0	354.912436307815	354.962411158864	0.0499748510483187	29670
29.77	50	176	0	0	fungus	648	176	0	stimuli\fungus\fungus_02s.jpg	1	-1	0	0	fungus_02s.jpg	0	0.0	0	355.012431602285	355.062414499058	0.0499828967731446	29770
29.87	50	177	0	0	coffee_pot	380	177	0	stimuli\coffee_pot\coffee_pot_09s.jpg	8	-1	0	0	coffee_pot_09s.jpg	0	0.0	0	355.112438599608	355.162417839252	0.0499792396440171	29870
29.97	50	178	0	0	crib	441	178	0	stimuli\crib\crib_06s.jpg	5	-1	0	0	crib_06s.jpg	0	0.0	0	355.212440720759	355.262421667052	0.0499809462926351	29970
30.07	50	179	0	0	iguana	825	179	0	stimuli\iguana\iguana_09s.jpg	8	-1	0	0	iguana_09s.jpg	0	0.0	0	355.312445036194	355.362424032006	0.0499789958121255	30070
30.17	50	180	0	0	vase	1753	180	0	stimuli\vase\vase_12n.jpg	11	-1	0	1	vase_12n.jpg	0	0.0	0	355.412448376388	355.462428835046	0.0499804586579558	30170
30.27	50	181	0	0	ski_pole	1455	181	0	stimuli\ski_pole\ski_pole_12s.jpg	11	-1	0	0	ski_pole_12s.jpg	0	0.0	0	355.51246975848295	355.562427786674	0.0499580281903036	30270
30.37	50	182	0	0	bun	220	182	0	stimuli\bun\bun_08s.jpg	7	-1	0	0	bun_08s.jpg	0	0.0	0	355.61245115581596	355.66243015162803	0.0499789958121255	30370
30.47	50	183	0	0	twig	1740	183	0	stimuli\twig\twig_05s.jpg	4	-1	0	0	twig_05s.jpg	1	0.300179711979581	1	355.712453764572	355.762438367994	0.0499846034217626	30470
30.57	50	184	0	0	trampoline	1701	184	0	stimuli\trampoline\trampoline_06s.jpg	5	-1	0	0	trampoline_06s.jpg	0	0.0	0	355.812460518093	355.862435125338	0.0499746072455309	30570
30.67	50	185	0	0	gauge	663	185	0	stimuli\gauge\gauge_03s.jpg	2	-1	0	0	gauge_03s.jpg	0	0.0	0	355.912460201158	355.962441878859	0.0499816777009983	30670
30.77	50	186	0	0	radiator	1272	186	0	stimuli\radiator\radiator_11s.jpg	10	-1	0	0	radiator_11s.jpg	0	0.0	0	356.01246159087196	356.06244473141896	0.0499831405468285	30770
30.87	50	187	0	0	fence	575	187	0	stimuli\fence\fence_09s.jpg	8	-1	0	0	fence_09s.jpg	0	0.0	0	356.112465662474	356.162451241136	0.0499855786620174	30870
30.97	50	188	0	0	cigarette_holder	346	188	0	stimuli\cigarette_holder\cigarette_holder_03s.jpg	2	-1	0	0	cigarette_holder_03s.jpg	0	0.0	0	356.21246558934195	356.26244775467796	0.0499821653356776	30970
31.07	50	189	0	0	awning	44	189	0	stimuli\awning\awning_04s.jpg	3	-1	0	0	awning_04s.jpg	0	0.0	0	356.312468441902	356.362450607237	0.0499821653356776	31070
31.17	50	190	0	0	tricycle	1711	190	0	stimuli\tricycle\tricycle_02s.jpg	1	-1	0	0	tricycle_02s.jpg	0	0.0	0	356.412469831615	356.46245248458604	0.0499826529703569	31170
31.27	50	191	0	0	pinecone	1183	191	0	stimuli\pinecone\pinecone_02s.jpg	1	-1	0	0	pinecone_02s.jpg	0	0.0	0	356.512478535617	356.56245655618795	0.0499780205718707	31270
31.37	50	192	0	0	sweeper	1594	192	0	stimuli\sweeper\sweeper_02s.jpg	1	-1	0	0	sweeper_02s.jpg	0	0.0	0	356.612480169133	356.662457945902	0.049977776769083	31370
31.47	50	193	0	0	dogfood	496	193	0	stimuli\dogfood\dogfood_07s.jpg	6	-1	0	0	dogfood_07s.jpg	0	0.0	0	356.71247960836604	356.762461773702	0.0499821653356776	31470
31.57	50	194	0	0	crank	432	194	0	stimuli\crank\crank_01b.jpg	0	-1	0	0	crank_01b.jpg	0	0.0	0	356.812483436195	356.86246584533404	0.0499824091384653	31570
31.67	50	195	0	0	toaster_oven	1667	195	0	stimuli\toaster_oven\toaster_oven_12s.jpg	11	-1	0	0	toaster_oven_12s.jpg	0	0.0	0	356.912487263995	356.962466991245	0.0499797272495925	31670
31.77	50	196	0	0	fork	634	196	0	stimuli\fork\fork_04s.jpg	3	-1	0	0	fork_04s.jpg	0	0.0	0	357.012492310867	357.062471794285	0.049979483417701	31770
31.87	50	197	0	0	blind	140	197	0	stimuli\blind\blind_11s.jpg	10	-1	0	0	blind_11s.jpg	0	0.0	0	357.11249077486	357.16247318399803	0.0499824091384653	31870
31.97	50	198	0	0	closet	360	198	0	stimuli\closet\closet_09s.jpg	8	-1	0	0	closet_09s.jpg	0	0.0	0	357.212492896011	357.26247579275497	0.0499828967440408	31970
32.07	50	199	0	0	police_car	1214	199	0	stimuli\police_car\police_car_10s.jpg	9	-1	0	0	police_car_10s.jpg	0	0.0	0	357.312496723811	357.362475231988	0.0499785081774462	32070
32.17	50	200	0	0	calf2	242	200	0	stimuli\calf2\calf2_01b.jpg	0	-1	0	0	calf2_01b.jpg	0	0.0	0	357.412501283048	357.46248271694606	0.0499814338982105	32170
32.27	50	201	0	0	hanger	751	201	0	stimuli\hanger\hanger_04s.jpg	3	-1	0	0	hanger_04s.jpg	0	0.0	0	357.512504867045	357.562485813338	0.0499809462926351	32270
32.37	50	202	0	0	battery	97	202	0	stimuli\battery\battery_01b.jpg	0	-1	0	0	battery_01b.jpg	0	0.0	0	357.61250601295603	357.66248427733103	0.0499782643746585	32370
32.47	50	203	0	0	keyboard	870	203	0	stimuli\keyboard\keyboard_11s.jpg	10	-1	0	0	keyboard_11s.jpg	0	0.0	0	357.712505695992	357.762486642285	0.0499809462926351	32470
32.57	50	204	0	0	llama	938	204	0	stimuli\llama\llama_03s.jpg	2	-1	0	1	llama_03s.jpg	0	0.0	0	357.812510011427	357.862490957719	0.0499809462926351	32570
32.67	50	205	0	0	beehive	112	205	0	stimuli\beehive\beehive_07s.jpg	6	-1	0	0	beehive_07s.jpg	0	0.0	0	357.912518715428	357.962494054082	0.0499753386538941	32670
32.77	50	206	0	0	mug	1036	206	0	stimuli\mug\mug_11s.jpg	10	-1	0	0	mug_11s.jpg	0	0.0	0	358.012512547051	358.062500076194	0.0499875291425269	32770
32.87	50	207	0	0	icepick	822	207	0	stimuli\icepick\icepick_03s.jpg	2	-1	0	0	icepick_03s.jpg	1	0.341917215468129	1	358.11252149485495	358.162501953513	0.0499804586579558	32870
32.97	50	208	0	0	mantle	969	208	0	stimuli\mantle\mantle_10s.jpg	9	-1	0	0	mantle_10s.jpg	0	0.0	0	358.212521909329	358.26250675655297	0.0499848472245503	32970
33.07	50	209	0	0	razor	1290	209	0	stimuli\razor\razor_06s.jpg	5	-1	0	0	razor_06s.jpg	0	0.0	0	358.31252305524004	358.362505464378	0.0499824091384653	33070
33.17	50	210	0	0	dagger	469	210	0	stimuli\dagger\dagger_03s.jpg	2	-1	0	0	dagger_03s.jpg	0	0.0	0	358.412525907799	358.462506610289	0.0499807024898473	33170
33.27	50	211	0	0	ram	1282	211	0	stimuli\ram\ram_03s.jpg	2	-1	0	0	ram_03s.jpg	0	0.0	0	358.512528760388	358.562505805719	0.049977045331616	33270
33.37	50	212	0	0	corkboard	410	212	0	stimuli\corkboard\corkboard_06s.jpg	5	-1	0	0	corkboard_06s.jpg	0	0.0	0	358.61253015010203	358.66251499732596	0.0499848472245503	33370
33.47	50	213	0	0	cummerbund	459	213	0	stimuli\cummerbund\cummerbund_05s.jpg	4	-1	0	0	cummerbund_05s.jpg	0	0.0	0	358.712538854074	358.762517849886	0.0499789958121255	33470
33.57	50	214	0	0	pinwheel	1185	214	0	stimuli\pinwheel\pinwheel_03s.jpg	2	-1	0	0	pinwheel_03s.jpg	0	0.0	0	358.812544632383	358.86252021484	0.0499755824566819	33570
33.67	50	215	0	0	guitar	723	215	0	stimuli\guitar\guitar_10s.jpg	9	-1	0	0	guitar_10s.jpg	0	0.0	0	358.912541145895	358.96251965410204	0.049978508206550004	33670
33.77	50	216	0	0	emerald	555	216	0	stimuli\emerald\emerald_08n.jpg	7	-1	0	0	emerald_08n.jpg	0	0.0	0	359.01254716797797	359.062525676185	0.049978508206550004	33770
33.87	50	217	0	0	bulletproof_vest	218	217	0	stimuli\bulletproof_vest\bulletproof_vest_07s.jpg	6	-1	0	0	bulletproof_vest_07s.jpg	0	0.0	0	359.112547338649	359.162528284942	0.0499809462926351	33870
33.97	50	218	0	0	cheetah	315	218	0	stimuli\cheetah\cheetah_07s.jpg	6	-1	0	0	cheetah_07s.jpg	0	0.0	0	359.212549947406	359.262528943218	0.0499789958121255	33970
34.07	50	219	0	0	pencil_sharpener	1143	219	0	stimuli\pencil_sharpener\pencil_sharpener_11s.jpg	10	-1	0	0	pencil_sharpener_11s.jpg	0	0.0	0	359.31254889903397	359.362536428176	0.0499875291425269	34070
34.17	50	220	0	0	wing	1827	220	0	stimuli\wing\wing_01b.jpg	0	-1	0	0	wing_01b.jpg	0	0.0	0	359.412553214468	359.462534648366	0.0499814338982105	34170
34.27	50	221	0	0	top_hat	1682	221	0	stimuli\top_hat\top_hat_02s.jpg	1	-1	0	0	top_hat_02s.jpg	0	0.0	0	359.512553872744	359.562535794277	0.0499819215328898	34270
34.37	50	222	0	0	grape	702	222	0	stimuli\grape\grape_04s.jpg	3	-1	0	0	grape_04s.jpg	0	0.0	0	359.61257623008	359.66254352303804	0.049967292958172004	34370
34.47	50	223	0	0	suspenders	1589	223	0	stimuli\suspenders\suspenders_12s.jpg	11	-1	0	0	suspenders_12s.jpg	0	0.0	0	359.712568598858	359.76254003655	0.049971437692874994	34470
34.57	50	224	0	0	yogurt	1848	224	0	stimuli\yogurt\yogurt_08s.jpg	7	-1	0	0	yogurt_08s.jpg	0	0.0	0	359.81256511237	359.86254483962006	0.0499797272495925	34570
34.67	50	225	0	0	saxophone	1368	225	0	stimuli\saxophone\saxophone_08s.jpg	7	-1	0	0	saxophone_08s.jpg	0	0.0	0	359.91256820876197	359.962544522656	0.0499763138941489	34670
34.77	50	226	0	0	baton2	93	226	0	stimuli\baton2\baton2_03s.jpg	2	-1	0	0	baton2_03s.jpg	0	0.0	0	360.012570573715	360.06254883809	0.0499782643746585	34770
34.87	50	227	0	0	beer	113	227	0	stimuli\beer\beer_03s.jpg	2	-1	0	0	beer_03s.jpg	0	0.0	0	360.112577327236	360.16255583541397	0.0499785081774462	34870
34.97	50	228	0	0	reindeer	1301	228	0	stimuli\reindeer\reindeer_08s.jpg	7	-1	0	0	reindeer_08s.jpg	0	0.0	0	360.212576035032	360.262558688002	0.0499826529703569	34970
35.07	50	229	0	0	mulberry	1037	229	0	stimuli\mulberry\mulberry_08s.jpg	7	-1	0	0	mulberry_08s.jpg	0	0.0	0	360.312580350466	360.36256129675905	0.0499809462926351	35070
35.17	50	230	0	0	home_plate	787	230	0	stimuli\home_plate\home_plate_07s.jpg	6	-1	0	0	home_plate_07s.jpg	0	0.0	0	360.412583203026	360.462557810271	0.0499746072455309	35170
35.27	50	231	0	0	worm	1836	231	0	stimuli\worm\worm_01b.jpg	0	-1	0	0	worm_01b.jpg	0	0.0	0	360.51258264225896	360.562583580933	0.0500009386742022	35270
35.37	50	232	0	0	truck	1720	232	0	stimuli\truck\truck_10s.jpg	9	-1	0	0	truck_10s.jpg	0	0.0	0	360.61258622628503	360.662568147789	0.049981921503786	35370
35.47	50	233	0	0	hay	761	233	0	stimuli\hay\hay_01b.jpg	0	-1	0	0	hay_01b.jpg	0	0.0	0	360.712585665518	360.762567343219	0.0499816777009983	35470
35.57	50	234	0	0	eyepiece	568	234	0	stimuli\eyepiece\eyepiece_05s.jpg	4	-1	0	0	eyepiece_05s.jpg	0	0.0	0	360.812590956164	360.862574340572	0.0499833844078239	35570
35.67	50	235	0	0	reel	1299	235	0	stimuli\reel\reel_05s.jpg	4	-1	0	0	reel_05s.jpg	0	0.0	0	360.91259527159895	360.962573779805	0.049978508206550004	35670
35.77	50	236	0	0	stopwatch	1562	236	0	stimuli\stopwatch\stopwatch_03s.jpg	2	-1	0	0	stopwatch_03s.jpg	0	0.0	0	361.012594954664	361.06257760760496	0.049982652941253	35770
35.87	50	237	0	0	windowsill	1819	237	0	stimuli\windowsill\windowsill_07s.jpg	6	-1	0	0	windowsill_07s.jpg	0	0.0	0	361.11259707578597	361.162581923039	0.0499848472536542	35870
35.97	50	238	0	0	candy	255	238	0	stimuli\candy\candy_05s.jpg	4	-1	0	0	candy_05s.jpg	0	0.0	0	361.21260480454697	361.26258282511805	0.0499780205718707	35970
36.07	50	239	0	0	juice	854	239	0	stimuli\juice\juice_06s.jpg	5	-1	0	0	juice_06s.jpg	0	0.0	0	361.312610339024	361.362592016754	0.0499816777301021	36070
36.17	50	240	0	0	knitting_needle	881	240	0	stimuli\knitting_needle\knitting_needle_09s.jpg	8	-1	0	0	knitting_needle_09s.jpg	0	0.0	0	361.41261026589206	361.462588774069	0.0499785081774462	36170
36.27	50	241	0	0	lectern	908	241	0	stimuli\lectern\lectern_10s.jpg	9	-1	0	0	lectern_10s.jpg	0	0.0	0	361.512607754645	361.56256675807504	0.0499590034305584	36270
36.37	50	242	0	0	sewing_machine	1407	242	0	stimuli\sewing_machine\sewing_machine_04s.jpg	3	-1	0	0	sewing_machine_04s.jpg	0	0.0	0	361.61261426436204	361.662593991612	0.0499797272495925	36370
36.47	50	243	0	0	stomach	1560	243	0	stimuli\stomach\stomach_08s.jpg	7	-1	0	0	stomach_08s.jpg	0	0.0	0	361.7126188236	361.762595625129	0.0499768015288282	36470
36.57	50	244	0	0	valve	1751	244	0	stimuli\valve\valve_08s.jpg	7	-1	0	0	valve_08s.jpg	0	0.0	0	361.81261826283304	361.862602378649	0.0499841158161871	36570
36.67	50	245	0	0	lens	916	245	0	stimuli\lens\lens_03s.jpg	2	-1	0	0	lens_03s.jpg	0	0.0	0	361.91262087159	361.962603036925	0.0499821653356776	36670
36.77	50	246	0	0	dessert	481	246	0	stimuli\dessert\dessert_04s.jpg	3	-1	0	0	dessert_04s.jpg	0	0.0	0	362.012623724178	362.06257492568704	0.0499512015085202	36770
36.87	50	247	0	0	coat_rack	370	247	0	stimuli\coat_rack\coat_rack_08s.jpg	7	-1	0	0	coat_rack_08s.jpg	0	0.0	0	362.112627308175	362.162606791593	0.049979483417701	36870
36.97	50	248	0	0	telephone_pole	1639	248	0	stimuli\telephone_pole\telephone_pole_07s.jpg	6	-1	0	0	telephone_pole_07s.jpg	0	0.0	0	362.212632355018	362.262609887985	0.0499775329662953	36970
37.07	50	249	0	0	splinter	1516	249	0	stimuli\splinter\splinter_08s.jpg	7	-1	0	0	splinter_08s.jpg	0	0.0	0	362.312630087603	362.36261322817904	0.0499831405759323	37070
37.17	50	250	0	0	hamburger	740	250	0	stimuli\hamburger\hamburger_01s.jpg	0	-1	0	0	hamburger_01s.jpg	0	0.0	0	362.41263732872903	362.462614617893	0.0499772891635075	37170
37.27	50	251	0	0	outfit	1087	251	0	stimuli\outfit\outfit_05s.jpg	4	-1	0	0	outfit_05s.jpg	0	0.0	0	362.51263774323195	362.562616739044	0.0499789958121255	37270
37.37	50	252	0	0	treasure	1707	252	0	stimuli\treasure\treasure_04s.jpg	3	-1	0	0	treasure_04s.jpg	0	0.0	0	362.612638889113	362.662620079209	0.0499811900954228	37370
37.47	50	253	0	0	thimble	1649	253	0	stimuli\thimble\thimble_09n.jpg	8	-1	0	0	thimble_09n.jpg	0	0.0	0	362.712642229308	362.76262171275397	0.0499794834468048	37470
37.57	50	254	0	0	rat	1285	254	0	stimuli\rat\rat_06s.jpg	5	-1	0	0	rat_06s.jpg	0	0.0	0	362.812667756167	362.862632123404	0.0499643672374077	37570
37.67	50	255	0	0	vial	1760	255	0	stimuli\vial\vial_05s.jpg	4	-1	0	0	vial_05s.jpg	0	0.0	0	362.91265037254203	362.962625711225	0.049975338682998	37670
37.77	50	256	0	0	wetsuit	1803	256	0	stimuli\wetsuit\wetsuit_04s.jpg	3	-1	0	0	wetsuit_04s.jpg	0	0.0	0	363.01265224989	363.062633196183	0.0499809462926351	37770
37.87	50	257	0	0	extinguisher	563	257	0	stimuli\extinguisher\extinguisher_03s.jpg	2	-1	0	0	extinguisher_03s.jpg	0	0.0	0	363.112652176729	363.162634098262	0.0499819215328898	37870
37.97	50	258	0	0	tent	1643	258	0	stimuli\tent\tent_03s.jpg	2	-1	0	0	tent_03s.jpg	0	0.0	0	363.212657955039	363.26263670701894	0.0499787519802339	37970
38.07	50	259	0	0	iron	832	259	0	stimuli\iron\iron_03s.jpg	2	-1	0	0	iron_03s.jpg	0	0.0	0	363.312659344752	363.362641022453	0.0499816777009983	38070
38.17	50	260	0	0	slime	1465	260	0	stimuli\slime\slime_11s.jpg	10	-1	0	1	slime_11s.jpg	0	0.0	0	363.412662928749	363.46264460644994	0.0499816777009983	38170
38.27	50	261	0	0	cake_mix	238	261	0	stimuli\cake_mix\cake_mix_04s.jpg	3	-1	0	0	cake_mix_04s.jpg	0	0.0	0	363.512662855588	363.562645020924	0.0499821653356776	38270
38.37	50	262	0	0	bobsled	155	262	0	stimuli\bobsled\bobsled_04s.jpg	3	-1	0	0	bobsled_04s.jpg	0	0.0	0	363.61266424530197	363.66264762968103	0.0499833843787201	38370
38.47	50	263	0	0	grits	717	263	0	stimuli\grits\grits_11s.jpg	10	-1	0	0	grits_11s.jpg	1	0.292213480570354	1	363.71267173026	363.762649750832	0.0499780205718707	38470
38.57	50	264	0	0	memory_stick	995	264	0	stimuli\memory_stick\memory_stick_10s.jpg	9	-1	0	0	memory_stick_10s.jpg	0	0.0	0	363.812675070454	363.862651871983	0.0499768015288282	38570
38.67	50	265	0	0	polygraph	1217	265	0	stimuli\polygraph\polygraph_02s.jpg	1	-1	0	0	polygraph_02s.jpg	0	0.0	0	363.91267207160104	363.962638876925	0.0499668053234927	38670
38.77	50	266	0	0	folder	625	266	0	stimuli\folder\folder_11s.jpg	10	-1	0	0	folder_11s.jpg	0	0.0	0	364.01266541559	364.06263734091795	0.0499719253275543	38770
38.87	50	267	0	0	egg_roll	547	267	0	stimuli\egg_roll\egg_roll_06s.jpg	5	-1	0	0	egg_roll_06s.jpg	0	0.0	0	364.11265510245005	364.162649458274	0.0499943558243103	38870
38.97	50	268	0	0	petri_dish	1159	268	0	stimuli\petri_dish\petri_dish_07s.jpg	6	-1	0	0	petri_dish_07s.jpg	0	0.0	0	364.212671364541	364.26263816989405	0.0499668053525966	38970
39.07	50	269	0	0	chicken2	323	269	0	stimuli\chicken2\chicken2_07s.jpg	6	-1	0	0	chicken2_07s.jpg	0	0.0	0	364.31267324188997	364.36265467578795	0.0499814338982105	39070
39.17	50	270	0	0	ostrich	1084	270	0	stimuli\ostrich\ostrich_04s.jpg	3	-1	0	0	ostrich_04s.jpg	0	0.0	0	364.412676338252	364.46265704074204	0.0499807024898473	39170
39.27	50	271	0	0	flamingo	608	271	0	stimuli\flamingo\flamingo_12s.jpg	11	-1	0	0	flamingo_12s.jpg	0	0.0	0	364.5126782156	364.56266111234396	0.0499828967440408	39270
39.37	50	272	0	0	air_mattress	5	272	0	stimuli\air_mattress\air_mattress_06s.jpg	5	-1	0	0	air_mattress_06s.jpg	0	0.0	0	364.612683262443	364.66266274589	0.0499794834468048	39370
39.47	50	273	0	0	barrette	77	273	0	stimuli\barrette\barrette_08s.jpg	7	-1	0	0	barrette_08s.jpg	0	0.0	0	364.71268513979203	364.762667061295	0.049981921503786	39470
39.57	50	274	0	0	aircraft_carrier	9	274	0	stimuli\aircraft_carrier\aircraft_carrier_05s.jpg	4	-1	0	0	aircraft_carrier_05s.jpg	0	0.0	0	364.812687260914	364.862672595773	0.0499853348592296	39570
39.67	50	275	0	0	wind_chimes	1817	275	0	stimuli\wind_chimes\wind_chimes_08s.jpg	7	-1	0	0	wind_chimes_08s.jpg	0	0.0	0	364.912677923014	364.96267057216005	0.0499926491465885	39670
39.77	50	276	0	0	thermos	1647	276	0	stimuli\thermos\thermos_09s.jpg	8	-1	0	0	thermos_09s.jpg	0	0.0	0	365.01268077560206	365.06267391235497	0.049993136752164	39770
39.87	50	277	0	0	goggles	686	277	0	stimuli\goggles\goggles_07s.jpg	6	-1	0	0	goggles_07s.jpg	0	0.0	0	365.11269728149597	365.162679690635	0.0499824091384653	39870
39.97	50	278	0	0	earplug	539	278	0	stimuli\earplug\earplug_01b.jpg	0	-1	0	0	earplug_01b.jpg	0	0.0	0	365.21268794359594	365.262682787026	0.0499948434298858	39970
40.07	50	279	0	0	string_cheese	1573	279	0	stimuli\string_cheese\string_cheese_04s.jpg	3	-1	0	0	string_cheese_04s.jpg	0	0.0	0	365.312703718053	365.362682957697	0.0499792396440171	40070
40.17	50	280	0	0	tomato	1672	280	0	stimuli\tomato\tomato_11s.jpg	10	-1	0	0	tomato_11s.jpg	0	0.0	0	365.412704620161	365.462683128368	0.049978508206550004	40170
40.27	50	281	0	0	candlestick	254	281	0	stimuli\candlestick\candlestick_03s.jpg	2	-1	0	0	candlestick_03s.jpg	0	0.0	0	365.51270576607203	365.562675984722	0.0499702186498325	40270
40.37	50	282	0	0	cello	292	282	0	stimuli\cello\cello_02s.jpg	1	-1	0	0	cello_02s.jpg	0	0.0	0	365.612709837675	365.662693953491	0.0499841158161871	40370
40.47	50	283	0	0	mixer	1009	283	0	stimuli\mixer\mixer_05s.jpg	4	-1	0	0	mixer_05s.jpg	0	0.0	0	365.712714396912	365.762679983221	0.0499655863095541	40470
40.57	50	284	0	0	bat1	87	284	0	stimuli\bat1\bat1_06s.jpg	5	-1	0	0	bat1_06s.jpg	0	0.0	0	365.81271432377997	365.86269770815903	0.0499833843787201	40570
40.67	50	285	0	0	sponge	1517	285	0	stimuli\sponge\sponge_06s.jpg	5	-1	0	0	sponge_06s.jpg	0	0.0	0	365.912718395412	365.96269982931	0.0499814338982105	40670
40.77	50	286	0	0	fire_pit	593	286	0	stimuli\fire_pit\fire_pit_09s.jpg	8	-1	0	0	fire_pit_09s.jpg	0	0.0	0	366.012720760336	366.06268927236704	0.0499685120303184	40770
40.87	50	287	0	0	tuba	1723	287	0	stimuli\tuba\tuba_09s.jpg	8	-1	0	0	tuba_09s.jpg	0	0.0	0	366.112721174839	366.162704559218	0.0499833843787201	40870
40.97	50	288	0	0	spider	1513	288	0	stimuli\spider\spider_03s.jpg	2	-1	0	0	spider_03s.jpg	0	0.0	0	366.212725734076	366.26270741177694	0.0499816777009983	40970
41.07	50	289	0	0	school_bus	1378	289	0	stimuli\school_bus\school_bus_12s.jpg	11	-1	0	0	school_bus_12s.jpg	0	0.0	0	366.31272931807297	366.362707826251	0.0499785081774462	41070
41.17	50	290	0	0	blazer	137	290	0	stimuli\blazer\blazer_06s.jpg	5	-1	0	0	blazer_06s.jpg	0	0.0	0	366.412718273496	366.462701657874	0.0499833843787201	41170
41.27	50	291	0	0	parachute	1118	291	0	stimuli\parachute\parachute_03s.jpg	2	-1	0	0	parachute_03s.jpg	0	0.0	0	366.512733072741	366.562714262836	0.0499811900954228	41270
41.37	50	292	0	0	tack	1611	292	0	stimuli\tack\tack_05s.jpg	4	-1	0	0	tack_05s.jpg	0	0.0	0	366.612736169103	366.66271809063596	0.0499819215328898	41370
41.47	50	293	0	0	juicer1	855	293	0	stimuli\juicer1\juicer1_03s.jpg	2	-1	0	0	juicer1_03s.jpg	0	0.0	0	366.71274048453796	366.762708265102	0.0499677805637475	41470
41.57	50	294	0	0	rug	1340	294	0	stimuli\rug\rug_02s.jpg	1	-1	0	0	rug_02s.jpg	0	0.0	0	366.812740411406	366.862714531017	0.0499741196108516	41570
41.67	50	295	0	0	sea_urchin	1393	295	0	stimuli\sea_urchin\sea_urchin_12s.jpg	11	-1	0	0	sea_urchin_12s.jpg	0	0.0	0	366.912743995403	366.96272518549796	0.0499811900954228	41670
41.77	50	296	0	0	seismograph	1403	296	0	stimuli\seismograph\seismograph_05s.jpg	4	-1	0	0	seismograph_05s.jpg	0	0.0	0	367.012748310837	367.062728038058	0.0499797272204887	41770
41.87	50	297	0	0	tab	1607	297	0	stimuli\tab\tab_02s.jpg	1	-1	0	0	tab_02s.jpg	0	0.0	0	367.112748969113	367.162717237312	0.0499682681984268	41870
41.97	50	298	0	0	jewelry	850	298	0	stimuli\jewelry\jewelry_11s.jpg	10	-1	0	0	jewelry_11s.jpg	0	0.0	0	367.21275377215403	367.262721308914	0.0499675367609598	41970
42.07	50	299	0	0	bell	116	299	0	stimuli\bell\bell_08s.jpg	7	-1	0	0	bell_08s.jpg	0	0.0	0	367.312756868545	367.36272440530604	0.0499675367609598	42070
42.17	50	300	0	0	clock	359	300	0	stimuli\clock\clock_09n.jpg	8	-1	0	0	clock_09n.jpg	0	0.0	0	367.412759721105	367.462737254071	0.0499775329662953	42170
42.27	50	301	0	0	clarinet	350	301	0	stimuli\clarinet\clarinet_10s.jpg	9	-1	0	0	clarinet_10s.jpg	0	0.0	0	367.512759404141	367.562740350433	0.0499809462926351	42270
42.37	50	302	0	0	chinaware	331	302	0	stimuli\chinaware\chinaware_09s.jpg	8	-1	0	0	chinaware_09s.jpg	0	0.0	0	367.612763475772	367.66274198397906	0.049978508206550004	42370
42.47	50	303	0	0	wallpaper	1777	303	0	stimuli\wallpaper\wallpaper_04s.jpg	3	-1	0	0	wallpaper_04s.jpg	0	0.0	0	367.71276754740404	367.762736059405	0.0499685120012145	42470
42.57	50	304	0	0	rollerskate	1327	304	0	stimuli\rollerskate\rollerskate_03s.jpg	2	-1	0	0	rollerskate_03s.jpg	0	0.0	0	367.812766986637	367.862752809102	0.0499858224648051	42570
42.67	50	305	0	0	jumpsuit	859	305	0	stimuli\jumpsuit\jumpsuit_01b.jpg	0	-1	0	0	jumpsuit_01b.jpg	0	0.0	0	367.912772521115	367.962739570241	0.0499670491262805	42670
42.77	50	306	0	0	pool_table	1222	306	0	stimuli\pool_table\pool_table_01s.jpg	0	-1	0	0	pool_table_01s.jpg	0	0.0	0	368.01277342319395	368.062756076164	0.0499826529703569	42770
42.87	50	307	0	0	crane	431	307	0	stimuli\crane\crane_04s.jpg	3	-1	0	0	crane_04s.jpg	0	0.0	0	368.112774569105	368.16276136681	0.0499867977050599	42870
42.97	50	308	0	0	can_opener	251	308	0	stimuli\can_opener\can_opener_08s.jpg	7	-1	0	0	can_opener_08s.jpg	0	0.0	0	368.212766937882	368.262749834626	0.0499828967440408	42970
54.487	50	309	0	0	clam	349	0	1	stimuli\clam\clam_12s.jpg	11	-1	1	0	clam_12s.jpg	0	0.0	0	379.72976935864403	379.77974981733104	0.0499804586870596	54487
54.587	50	310	0	0	fishbowl	601	1	1	stimuli\fishbowl\fishbowl_03s.jpg	2	-1	1	0	fishbowl_03s.jpg	0	0.0	0	379.829770260752	379.879753645131	0.0499833843787201	54587
54.687	50	311	0	0	taco	1613	2	1	stimuli\taco\taco_08s.jpg	7	-1	1	0	taco_08s.jpg	0	0.0	0	379.929775063792	379.979754791042	0.0499797272495925	54687
54.787	50	312	0	0	belt	118	3	1	stimuli\belt\belt_12s.jpg	11	-1	1	0	belt_12s.jpg	0	0.0	0	380.02977742874606	380.079756180756	0.0499787520093378	54787
54.887	50	313	0	0	ratchet	1286	4	1	stimuli\ratchet\ratchet_03s.jpg	2	-1	1	0	ratchet_03s.jpg	0	0.0	0	380.12977979370004	380.179757814272	0.0499780205718707	54887
54.987	50	314	0	0	mouse2	1027	5	1	stimuli\mouse2\mouse2_08s.jpg	7	-1	1	0	mouse2_08s.jpg	0	0.0	0	380.22978020817396	380.27976286111505	0.049982652941253	54987
55.087	50	315	0	0	rust	1342	6	1	stimuli\rust\rust_09s.jpg	8	-1	1	0	rust_09s.jpg	0	0.0	0	380.329786230257	380.379765713704	0.0499794834468048	55087
55.187	50	316	0	0	palm_tree	1102	7	1	stimuli\palm_tree\palm_tree_12s.jpg	11	-1	1	0	palm_tree_12s.jpg	0	0.0	0	380.429787619971	380.479770760547	0.0499831405759323	55187
55.287	50	317	0	0	lemonade	915	8	1	stimuli\lemonade\lemonade_06s.jpg	5	-1	1	0	lemonade_06s.jpg	0	0.0	0	380.529789984925	380.57977312550105	0.0499831405759323	55287
55.387	50	318	0	0	sling	1466	9	1	stimuli\sling\sling_02s.jpg	1	-1	1	0	sling_02s.jpg	0	0.0	0	380.62979161847	380.67976549427806	0.0499738758080639	55387
55.487	50	319	0	0	tape_recorder	1624	10	1	stimuli\tape_recorder\tape_recorder_03s.jpg	2	-1	1	0	tape_recorder_03s.jpg	0	0.0	0	380.72977325960505	380.77977346684196	0.0500002072367352	55487
55.587	50	320	0	0	barcode	73	11	1	stimuli\barcode\barcode_10s.jpg	9	-1	1	0	barcode_10s.jpg	0	0.0	0	380.82978659597603	380.87975388893403	0.049967292958172004	55587
55.687	50	321	0	0	webcam	1799	12	1	stimuli\webcam\webcam_09s.jpg	8	-1	1	0	webcam_09s.jpg	0	0.0	0	380.929790423805	380.979757960566	0.0499675367609598	55687
55.787	50	322	0	0	nail_clippers	1047	13	1	stimuli\nail_clippers\nail_clippers_09s.jpg	8	-1	1	0	nail_clippers_09s.jpg	0	0.0	0	381.029790594446	381.079758618842	0.0499680243956391	55787
55.887	50	323	0	0	shower	1433	14	1	stimuli\shower\shower_02s.jpg	1	-1	1	0	shower_02s.jpg	0	0.0	0	381.129795397515	381.17977268665	0.0499772891344037	55887
55.987	50	324	0	0	drumstick	523	15	1	stimuli\drumstick\drumstick_07s.jpg	6	-1	1	0	drumstick_07s.jpg	0	0.0	0	381.22979849387804	381.27976578683604	0.049967292958172004	55987
56.087	50	325	0	0	celery	291	16	1	stimuli\celery\celery_05s.jpg	4	-1	1	0	celery_05s.jpg	0	0.0	0	381.329789643612	381.37977668512	0.0499870415078476	56087
56.187	50	326	0	0	ankle	22	17	1	stimuli\ankle\ankle_03s.jpg	2	-1	1	0	ankle_03s.jpg	0	0.0	0	381.429803467588	381.479780512949	0.0499770453607198	56187
56.287	50	327	0	0	faucet	573	18	1	stimuli\faucet\faucet_02s.jpg	1	-1	1	0	faucet_02s.jpg	0	0.0	0	381.529806076374	381.579785315989	0.0499792396149132	56287
56.387	50	328	0	0	strawberry	1570	19	1	stimuli\strawberry\strawberry_09n.jpg	8	-1	1	0	strawberry_09n.jpg	0	0.0	0	381.62980990417395	381.679787680943	0.049977776769083	56387
56.487	50	329	0	0	air_pump	6	20	1	stimuli\air_pump\air_pump_01s.jpg	0	-1	1	0	air_pump_01s.jpg	0	0.0	0	381.72978398721904	381.779790777306	0.050006790086627	56487
56.587	50	330	0	0	pitchfork	1191	21	1	stimuli\pitchfork\pitchfork_09s.jpg	8	-1	1	0	pitchfork_09s.jpg	0	0.0	0	381.829814146447	381.879782902281	0.0499687558331061	56587
56.687	50	331	0	0	cobra	371	22	1	stimuli\cobra\cobra_05s.jpg	4	-1	1	0	cobra_05s.jpg	0	0.0	0	381.929816755204	381.97979550721396	0.0499787520093378	56687
56.787	50	332	0	0	rack2	1269	23	1	stimuli\rack2\rack2_05s.jpg	4	-1	1	0	rack2_05s.jpg	0	0.0	0	382.02981863255303	382.07978690075106	0.0499682681984268	56787
56.887	50	333	0	0	saddle	1343	24	1	stimuli\saddle\saddle_08s.jpg	7	-1	1	0	saddle_08s.jpg	0	0.0	0	382.12982246035205	382.179803650448	0.0499811900954228	56887
56.987	50	334	0	0	orange_rind	1079	25	1	stimuli\orange_rind\orange_rind_02s.jpg	1	-1	1	0	orange_rind_02s.jpg	0	0.0	0	382.229827263422	382.279790167784	0.0499629043624736	56987
57.087	50	335	0	0	applesauce	32	26	1	stimuli\applesauce\applesauce_04s.jpg	3	-1	1	0	applesauce_04s.jpg	0	0.0	0	382.329828653135	382.37979253273807	0.0499638796027284	57087
57.187	50	336	0	0	sunroof	1586	27	1	stimuli\sunroof\sunroof_06s.jpg	5	-1	1	0	sunroof_06s.jpg	0	0.0	0	382.42983101806	382.47979782341304	0.0499668053525966	57187
57.287	50	337	0	0	earwig	541	28	1	stimuli\earwig\earwig_07n.jpg	6	-1	1	0	earwig_07n.jpg	0	0.0	0	382.5298226554	382.579810672178	0.0499880167772062	57287
57.387	50	338	0	0	oilcan	1073	29	1	stimuli\oilcan\oilcan_04s.jpg	3	-1	1	0	oilcan_04s.jpg	0	0.0	0	382.62983672320803	382.67980206568603	0.0499653424776625	57387
57.487	50	339	0	0	bed	108	30	1	stimuli\bed\bed_04s.jpg	3	-1	1	0	bed_04s.jpg	0	0.0	0	382.729827385308	382.77980613731796	0.0499787520093378	57487
57.587	50	340	0	0	wig	1816	31	1	stimuli\wig\wig_05s.jpg	4	-1	1	0	wig_05s.jpg	0	0.0	0	382.82983023789706	382.879811671795	0.0499814338982105	57587
57.687	50	341	0	0	game	654	32	1	stimuli\game\game_12s.jpg	11	-1	1	0	game_12s.jpg	0	0.0	0	382.929832846654	382.979818181513	0.0499853348592296	57687
57.787	50	342	0	0	bouquet	173	33	1	stimuli\bouquet\bouquet_06s.jpg	5	-1	1	0	bouquet_06s.jpg	0	0.0	0	383.029837649694	383.079812988348	0.0499753386538941	57787
57.887	50	343	0	0	swan	1591	34	1	stimuli\swan\swan_01b.jpg	0	-1	1	0	swan_01b.jpg	0	0.0	0	383.129840989888	383.179814865696	0.0499738758080639	57887
57.987	50	344	0	0	stereo	1549	35	1	stimuli\stereo\stereo_09s.jpg	8	-1	1	0	stereo_09s.jpg	0	0.0	0	383.22984116055903	383.279818693496	0.0499775329371914	57987
58.087	50	345	0	0	violin	1764	36	1	stimuli\violin\violin_11s.jpg	10	-1	1	1	violin_11s.jpg	0	0.0	0	383.32984133123	383.37982081464696	0.049979483417701	58087
58.187	50	346	0	0	hip	780	37	1	stimuli\hip\hip_10s.jpg	9	-1	1	0	hip_10s.jpg	0	0.0	0	383.429845159029	383.479824886279	0.0499797272495925	58187
58.287	50	347	0	0	chalk	302	38	1	stimuli\chalk\chalk_01b.jpg	0	-1	1	0	chalk_01b.jpg	0	0.0	0	383.529852400156	383.579827495036	0.0499750948802102	58287
58.387	50	348	0	0	puffin	1248	39	1	stimuli\puffin\puffin_01b.jpg	0	-1	1	0	puffin_01b.jpg	1	0.300189220521133	1	383.629852814629	383.679829128552	0.0499763139232527	58387
58.487	50	349	0	0	lawnmower	905	40	1	stimuli\lawnmower\lawnmower_09s.jpg	8	-1	1	0	lawnmower_09s.jpg	0	0.0	0	383.729855423415	383.779832224944	0.0499768015288282	58487
58.587	50	350	0	0	calzone	243	41	1	stimuli\calzone\calzone_05s.jpg	4	-1	1	0	calzone_05s.jpg	0	0.0	0	383.829856325494	383.879835808941	0.0499794834468048	58587
58.687	50	351	0	0	fishing_pole	603	42	1	stimuli\fishing_pole\fishing_pole_01b.jpg	0	-1	1	0	fishing_pole_01b.jpg	0	0.0	0	383.92985917808295	383.979839880543	0.0499807024607435	58687
58.787	50	352	0	0	comic_book	391	43	1	stimuli\comic_book\comic_book_03s.jpg	2	-1	1	0	comic_book_03s.jpg	0	0.0	0	384.029864224925	384.079841026454	0.0499768015288282	58787
58.887	50	353	0	0	cornbread	413	44	1	stimuli\cornbread\cornbread_03s.jpg	2	-1	1	0	cornbread_03s.jpg	0	0.0	0	384.129865127034	384.17984290377404	0.0499777767399792	58887
58.987	50	354	0	0	wagon	1772	45	1	stimuli\wagon\wagon_01b.jpg	0	-1	1	0	wagon_01b.jpg	0	0.0	0	384.229868223396	384.279844049684	0.0499758262885734	58987
59.087	50	355	0	0	cocoon	376	46	1	stimuli\cocoon\cocoon_11s.jpg	10	-1	1	0	cocoon_11s.jpg	0	0.0	0	384.329869125504	384.379854460363	0.0499853348592296	59087
59.187	50	356	0	0	plunger	1204	47	1	stimuli\plunger\plunger_03s.jpg	2	-1	1	0	plunger_03s.jpg	0	0.0	0	384.42987295330397	384.479852924356	0.0499799710523803	59187
59.287	50	357	0	0	filing_cabinet	585	48	1	stimuli\filing_cabinet\filing_cabinet_08s.jpg	7	-1	1	0	filing_cabinet_08s.jpg	0	0.0	0	384.529876293498	384.57985480167605	0.0499785081774462	59287
59.387	50	358	0	0	mouth	1031	49	1	stimuli\mouth\mouth_12s.jpg	11	-1	1	0	mouth_12s.jpg	0	0.0	0	384.62987817081705	384.679858629504	0.0499804586870596	59387
59.487	50	359	0	0	dog	495	50	1	stimuli\dog\dog_05s.jpg	4	-1	1	0	dog_05s.jpg	0	0.0	0	384.729881023406	384.779864163982	0.0499831405759323	59487
59.587	50	360	0	0	hotplate	806	51	1	stimuli\hotplate\hotplate_04s.jpg	3	-1	1	0	hotplate_04s.jpg	0	0.0	0	384.8298843636	384.879862627975	0.0499782643746585	59587
59.687	50	361	0	0	polar_bear	1211	52	1	stimuli\polar_bear\polar_bear_11s.jpg	10	-1	1	0	polar_bear_11s.jpg	0	0.0	0	384.92988575331395	384.979865724366	0.0499799710523803	59687
59.787	50	362	0	0	rosary	1333	53	1	stimuli\rosary\rosary_01b.jpg	0	-1	1	0	rosary_01b.jpg	0	0.0	0	385.029888605874	385.079869795969	0.0499811900954228	59787
59.887	50	363	0	0	shaker	1408	54	1	stimuli\shaker\shaker_10s.jpg	9	-1	1	0	shaker_10s.jpg	0	0.0	0	385.12989194606797	385.17987167331705	0.0499797272495925	59887
59.987	50	364	0	0	bowler_hat	178	55	1	stimuli\bowler_hat\bowler_hat_01b.jpg	0	-1	1	0	bowler_hat_01b.jpg	0	0.0	0	385.229895773868	385.27987403827103	0.0499782644037623	59987
60.087	50	365	0	0	arm	36	56	1	stimuli\arm\arm_03s.jpg	2	-1	1	0	arm_03s.jpg	0	0.0	0	385.329897163581	385.379877866071	0.0499807024898473	60087
60.187	50	366	0	0	blowfish	146	57	1	stimuli\blowfish\blowfish_03s.jpg	2	-1	1	0	blowfish_03s.jpg	0	0.0	0	385.429900259973	385.479880231025	0.0499799710523803	60187
60.287	50	367	0	0	toaster	1666	58	1	stimuli\toaster\toaster_06s.jpg	5	-1	1	0	toaster_06s.jpg	0	0.0	0	385.529902137292	385.579885765503	0.0499836282106116	60287
60.387	50	368	0	0	granola	701	59	1	stimuli\granola\granola_09s.jpg	8	-1	1	0	granola_09s.jpg	0	0.0	0	385.629906940361	385.679884960933	0.0499780205718707	60387
60.487	50	369	0	0	hood	791	60	1	stimuli\hood\hood_12s.jpg	11	-1	1	0	hood_12s.jpg	0	0.0	0	385.729908086243	385.779887082055	0.0499789958121255	60487
60.587	50	370	0	0	ukulele	1742	61	1	stimuli\ukulele\ukulele_03s.jpg	2	-1	1	0	ukulele_03s.jpg	0	0.0	0	385.82991167024	385.87988993464404	0.0499782644037623	60587
60.687	50	371	0	0	chime	328	62	1	stimuli\chime\chime_06s.jpg	5	-1	1	0	chime_06s.jpg	0	0.0	0	385.929913791391	385.979891080555	0.0499772891635075	60687
60.787	50	372	0	0	saltshaker	1350	63	1	stimuli\saltshaker\saltshaker_07s.jpg	6	-1	1	0	saltshaker_07s.jpg	0	0.0	0	386.029917131586	386.079893933114	0.0499768015288282	60787
60.887	50	373	0	0	firecracker	594	64	1	stimuli\firecracker\firecracker_11s.jpg	10	-1	1	0	firecracker_11s.jpg	0	0.0	0	386.129917058453	386.179897273309	0.049980214855167994	60887
60.987	50	374	0	0	pan	1103	65	1	stimuli\pan\pan_03s.jpg	2	-1	1	1	pan_03s.jpg	0	0.0	0	386.229921617691	386.27989988206497	0.0499782643746585	60987
61.087	50	375	0	0	duster	534	66	1	stimuli\duster\duster_08s.jpg	7	-1	1	0	duster_08s.jpg	0	0.0	0	386.32992471405294	386.37990444130304	0.0499797272495925	61087
61.187	50	376	0	0	wok	1830	67	1	stimuli\wok\wok_02s.jpg	1	-1	1	0	wok_02s.jpg	0	0.0	0	386.429926103767	386.47990461197304	0.049978508206550004	61187
61.287	50	377	0	0	nail_polish	1049	68	1	stimuli\nail_polish\nail_polish_05s.jpg	4	-1	1	0	nail_polish_05s.jpg	1	0.341907463065581	1	386.529929200158	386.579907708336	0.0499785081774462	61287
61.387	50	378	0	0	banana	63	69	1	stimuli\banana\banana_02s.jpg	1	-1	1	0	banana_02s.jpg	0	0.0	0	386.62993180891505	386.67991007329005	0.0499782643746585	61387
61.487	50	379	0	0	gopher	694	70	1	stimuli\gopher\gopher_04s.jpg	3	-1	1	0	gopher_04s.jpg	0	0.0	0	386.72993734339303	386.77991633920504	0.0499789958121255	61487
61.587	50	380	0	0	tambourine	1619	71	1	stimuli\tambourine\tambourine_12s.jpg	11	-1	1	0	tambourine_12s.jpg	0	0.0	0	386.82995799405	386.879916997481	0.0499590034305584	61587
61.687	50	381	0	0	gazelle	666	72	1	stimuli\gazelle\gazelle_07s.jpg	6	-1	1	0	gazelle_07s.jpg	0	0.0	0	386.929942560906	386.97991985007	0.0499772891635075	61687
61.787	50	382	0	0	doll	499	73	1	stimuli\doll\doll_11s.jpg	10	-1	1	0	doll_11s.jpg	0	0.0	0	387.0299459011	387.079922946432	0.049977045331616	61787
61.887	50	383	0	0	buckle	210	74	1	stimuli\buckle\buckle_08s.jpg	7	-1	1	0	buckle_08s.jpg	0	0.0	0	387.129946803208	387.17992189806	0.0499750948511064	61887
61.987	50	384	0	0	spear	1510	75	1	stimuli\spear\spear_01s.jpg	0	-1	1	0	spear_01s.jpg	0	0.0	0	387.229948192922	387.2799267011	0.0499785081774462	61987
62.087	50	385	0	0	ashtray	41	76	1	stimuli\ashtray\ashtray_02s.jpg	1	-1	1	0	ashtray_02s.jpg	0	0.0	0	387.32995128928496	387.379928090813	0.0499768015288282	62087
62.187	50	386	0	0	trunk	1722	77	1	stimuli\trunk\trunk_07s.jpg	6	-1	1	0	trunk_07s.jpg	0	0.0	0	387.429956336156	387.479932406248	0.0499760700913612	62187
62.287	50	387	0	0	candy_bar	256	78	1	stimuli\candy_bar\candy_bar_07s.jpg	6	-1	1	0	candy_bar_07s.jpg	0	0.0	0	387.52995601919196	387.579933795962	0.049977776769083	62287
62.387	50	388	0	0	uniform	1747	79	1	stimuli\uniform\uniform_01b.jpg	0	-1	1	0	uniform_01b.jpg	0	0.0	0	387.629960334627	387.679937136156	0.0499768015288282	62387
62.487	50	389	0	0	beetle	115	80	1	stimuli\beetle\beetle_06s.jpg	5	-1	1	0	beetle_06s.jpg	0	0.0	0	387.729962943384	387.77994120778703	0.0499782644037623	62487
62.587	50	390	0	0	slug	1472	81	1	stimuli\slug\slug_01s.jpg	0	-1	1	0	slug_01s.jpg	0	0.0	0	387.829965795972	387.879942353669	0.0499765576969367	62587
62.687	50	391	0	0	rearview_mirror	1293	82	1	stimuli\rearview_mirror\rearview_mirror_08s.jpg	7	-1	1	0	rearview_mirror_08s.jpg	0	0.0	0	387.929967429489	387.97994691290705	0.049979483417701	62687
62.787	50	392	0	0	hammock	742	83	1	stimuli\hammock\hammock_08s.jpg	7	-1	1	0	hammock_08s.jpg	0	0.0	0	388.02997174492305	388.07994830262	0.0499765576969367	62787
62.887	50	393	0	0	trophy	1717	84	1	stimuli\trophy\trophy_01b.jpg	0	-1	1	0	trophy_01b.jpg	0	0.0	0	388.129973134637	388.179950179969	0.049977045331616	62887
62.987	50	394	0	0	turf	1732	85	1	stimuli\turf\turf_04s.jpg	3	-1	1	0	turf_04s.jpg	0	0.0	0	388.229976230999	388.279955226812	0.0499789958121255	62987
63.087	50	395	0	0	possum	1228	86	1	stimuli\possum\possum_07s.jpg	6	-1	1	0	possum_07s.jpg	0	0.0	0	388.329979083588	388.379958567006	0.049979483417701	63087
63.187	50	396	0	0	stirrup	1558	87	1	stimuli\stirrup\stirrup_11s.jpg	10	-1	1	0	stirrup_11s.jpg	0	0.0	0	388.42998315519094	388.4799619072	0.0499787520093378	63187
63.287	50	397	0	0	checkbook	310	88	1	stimuli\checkbook\checkbook_01b.jpg	0	-1	1	0	checkbook_01b.jpg	0	0.0	0	388.52998454490404	388.57996110263	0.0499765577260405	63287
63.387	50	398	0	0	seaweed	1400	89	1	stimuli\seaweed\seaweed_05s.jpg	4	-1	1	0	seaweed_05s.jpg	0	0.0	0	388.62999081081904	388.679964199022	0.0499733882024884	63387
63.487	50	399	0	0	corset	418	90	1	stimuli\corset\corset_03s.jpg	2	-1	1	0	corset_03s.jpg	0	0.0	0	388.72998829957197	388.779967539187	0.0499792396149132	63487
63.587	50	400	0	0	pocket	1205	91	1	stimuli\pocket\pocket_11s.jpg	10	-1	1	0	pocket_11s.jpg	0	0.0	0	388.82999188356905	388.87996966033796	0.049977776769083	63587
63.687	50	401	0	0	cash_register	280	92	1	stimuli\cash_register\cash_register_03s.jpg	2	-1	1	0	cash_register_03s.jpg	0	0.0	0	388.92999400472	388.97997495101305	0.0499809462926351	63687
63.787	50	402	0	0	paddle	1094	93	1	stimuli\paddle\paddle_09s.jpg	8	-1	1	0	paddle_09s.jpg	0	0.0	0	389.029998076352	389.079974390246	0.0499763138941489	63787
63.887	50	403	0	0	target	1627	94	1	stimuli\target\target_04s.jpg	3	-1	1	0	target_04s.jpg	0	0.0	0	389.130001172714	389.179977242806	0.0499760700913612	63887
63.987	50	404	0	0	hotdog	805	95	1	stimuli\hotdog\hotdog_06s.jpg	5	-1	1	0	hotdog_06s.jpg	0	0.0	0	389.230003293866	389.279982045875	0.0499787520093378	63987
64.087	50	405	0	0	motorcycle	1025	96	1	stimuli\motorcycle\motorcycle_03s.jpg	2	-1	1	0	motorcycle_03s.jpg	0	0.0	0	389.33000614642503	389.37998392319395	0.049977776769083	64087
64.187	50	406	0	0	duckling	526	97	1	stimuli\duckling\duckling_06s.jpg	5	-1	1	0	duckling_06s.jpg	0	0.0	0	389.430007048533	389.479987263388	0.049980214855167994	64187
64.287	50	407	0	0	bacon	51	98	1	stimuli\bacon\bacon_09s.jpg	8	-1	1	0	bacon_09s.jpg	0	0.0	0	389.53001038872804	389.579988409299	0.0499780205718707	64287
64.387	50	408	0	0	airplane	10	99	1	stimuli\airplane\airplane_07n.jpg	6	-1	1	0	airplane_07n.jpg	0	0.0	0	389.630013728922	389.67999126185896	0.0499775329371914	64387
64.487	50	409	0	0	pencil	1142	100	1	stimuli\pencil\pencil_08s.jpg	7	-1	1	0	pencil_08s.jpg	0	0.0	0	389.730015850044	389.77999630873103	0.0499804586870596	64487
64.587	50	410	0	0	bathrobe	90	101	1	stimuli\bathrobe\bathrobe_03s.jpg	2	-1	1	0	bathrobe_03s.jpg	0	0.0	0	389.830019677873	389.879997698445	0.0499780205718707	64587
64.687	50	411	0	0	tripod	1714	102	1	stimuli\tripod\tripod_04s.jpg	3	-1	1	0	tripod_04s.jpg	0	0.0	0	389.93002009234596	389.979999575764	0.049979483417701	64687
64.787	50	412	0	0	squirrel	1529	103	1	stimuli\squirrel\squirrel_11s.jpg	10	-1	1	0	squirrel_11s.jpg	0	0.0	0	390.03002318870904	390.08000242835294	0.0499792396440171	64787
64.887	50	413	0	0	kettle	868	104	1	stimuli\kettle\kettle_04n.jpg	3	-1	1	0	kettle_04n.jpg	0	0.0	0	390.130026528903	390.18000552471494	0.0499789958121255	64887
64.987	50	414	0	0	tray	1705	105	1	stimuli\tray\tray_09s.jpg	8	-1	1	0	tray_09s.jpg	0	0.0	0	390.230028406251	390.280006670626	0.0499782643746585	64987
65.087	50	415	0	0	map	970	106	1	stimuli\map\map_02s.jpg	1	-1	1	0	map_02s.jpg	0	0.0	0	390.330031990248	390.380009767017	0.049977776769083	65087
65.187	50	416	0	0	banner	70	107	1	stimuli\banner\banner_06s.jpg	5	-1	1	0	banner_06s.jpg	0	0.0	0	390.43003508661104	390.480013351014	0.0499782644037623	65187
65.287	50	417	0	0	dip	487	108	1	stimuli\dip\dip_01b.jpg	0	-1	1	0	dip_01b.jpg	0	0.0	0	390.53003915824206	390.580016935011	0.049977776769083	65287
65.387	50	418	0	0	mitten	1008	109	1	stimuli\mitten\mitten_01b.jpg	0	-1	1	0	mitten_01b.jpg	0	0.0	0	390.63003932891297	390.68001978757104	0.0499804586579558	65387
65.487	50	419	0	0	fig	581	110	1	stimuli\fig\fig_06n.jpg	5	-1	1	0	fig_06n.jpg	0	0.0	0	390.730042669107	390.780020933482	0.0499782643746585	65487
65.587	50	420	0	0	lightbulb	927	111	1	stimuli\lightbulb\lightbulb_12s.jpg	11	-1	1	0	lightbulb_12s.jpg	0	0.0	0	390.83004381498904	390.880024273676	0.0499804586870596	65587
65.687	50	421	0	0	chisel	336	112	1	stimuli\chisel\chisel_06s.jpg	5	-1	1	0	chisel_06s.jpg	0	0.0	0	390.93004861805804	390.980027857673	0.0499792396149132	65687
65.787	50	422	0	0	cabbage	232	113	1	stimuli\cabbage\cabbage_04s.jpg	3	-1	1	0	cabbage_04s.jpg	0	0.0	0	391.030050495378	391.080030954035	0.0499804586579558	65787
65.887	50	423	0	0	lamb	889	114	1	stimuli\lamb\lamb_04s.jpg	3	-1	1	0	lamb_04s.jpg	0	0.0	0	391.130053104134	391.180032587581	0.0499794834468048	65887
65.987	50	424	0	0	sparkler	1507	115	1	stimuli\sparkler\sparkler_09s.jpg	8	-1	1	0	sparkler_09s.jpg	0	0.0	0	391.230057907174	391.280036659184	0.0499787520093378	65987
66.087	50	425	0	0	remote_control	1302	116	1	stimuli\remote_control\remote_control_03s.jpg	2	-1	1	0	remote_control_03s.jpg	0	0.0	0	391.33006002832605	391.38003780509496	0.049977776769083	66087
66.187	50	426	0	0	centerpiece	295	117	1	stimuli\centerpiece\centerpiece_07s.jpg	6	-1	1	0	centerpiece_07s.jpg	0	0.0	0	391.43006263708196	391.48004138909204	0.0499787520093378	66187
66.287	50	427	0	0	steak	1544	118	1	stimuli\steak\steak_09s.jpg	8	-1	1	1	steak_09s.jpg	0	0.0	0	391.53006719632003	391.58004326644	0.04997607012046499	66287
66.387	50	428	0	0	sandal	1352	119	1	stimuli\sandal\sandal_05s.jpg	4	-1	1	0	sandal_05s.jpg	0	0.0	0	391.630071755557	391.680046119	0.0499743634427432	66387
66.487	50	429	0	0	goose	693	120	1	stimuli\goose\goose_08s.jpg	7	-1	1	0	goose_08s.jpg	0	0.0	0	391.73007192622805	391.78004872775597	0.0499768015288282	66487
66.587	50	430	0	0	armor	37	121	1	stimuli\armor\armor_07s.jpg	6	-1	1	0	armor_07s.jpg	1	0.35016212114715	1	391.83007209689794	391.88005279938795	0.0499807024898473	66587
66.687	50	431	0	0	rag	1276	122	1	stimuli\rag\rag_05s.jpg	4	-1	1	0	rag_05s.jpg	0	0.0	0	391.93009030946996	391.98005662718805	0.0499663177179173	66687
66.787	50	432	0	0	whistle	1812	123	1	stimuli\whistle\whistle_02s.jpg	1	-1	1	0	whistle_02s.jpg	0	0.0	0	392.030091942986	392.080057529296	0.0499655863095541	66787
66.887	50	433	0	0	doorbell	507	124	1	stimuli\doorbell\doorbell_12s.jpg	11	-1	1	0	doorbell_12s.jpg	0	0.0	0	392.13008162984596	392.18006379518204	0.0499821653356776	66887
66.987	50	434	0	0	bassoon	86	125	1	stimuli\bassoon\bassoon_02s.jpg	1	-1	1	0	bassoon_02s.jpg	0	0.0	0	392.23008301956	392.280061283964	0.0499782644037623	66987
67.087	50	435	0	0	baseball_glove	80	126	1	stimuli\baseball_glove\baseball_glove_10s.jpg	9	-1	1	0	baseball_glove_10s.jpg	0	0.0	0	392.330086847389	392.38006291748	0.0499760700913612	67087
67.187	50	436	0	0	avocado	43	127	1	stimuli\avocado\avocado_10s.jpg	9	-1	1	0	avocado_10s.jpg	0	0.0	0	392.430090431386	392.480069914804	0.049979483417701	67187
67.287	50	437	0	0	warthog	1781	128	1	stimuli\warthog\warthog_08s.jpg	7	-1	1	0	warthog_08s.jpg	0	0.0	0	392.530090114422	392.58006886643096	0.0499787520093378	67287
67.387	50	438	0	0	apple	30	129	1	stimuli\apple\apple_11s.jpg	10	-1	1	0	apple_11s.jpg	0	0.0	0	392.630099793663	392.68007342566904	0.0499736320052762	67387
67.487	50	439	0	0	christmas_card	340	130	1	stimuli\christmas_card\christmas_card_01b.jpg	0	-1	1	0	christmas_card_01b.jpg	0	0.0	0	392.73009923289595	392.78007652203104	0.0499772891344037	67487
67.587	50	440	0	0	snowshoe	1485	131	1	stimuli\snowshoe\snowshoe_09s.jpg	8	-1	1	0	snowshoe_09s.jpg	0	0.0	0	392.830099403567	392.88007815557603	0.0499787520093378	67587
67.687	50	441	0	0	rack1	1268	132	1	stimuli\rack1\rack1_06s.jpg	5	-1	1	0	rack1_06s.jpg	0	0.0	0	392.93010249995905	392.980081008136	0.0499785081774462	67687
67.787	50	442	0	0	sloth	1471	133	1	stimuli\sloth\sloth_05s.jpg	4	-1	1	0	sloth_05s.jpg	0	0.0	0	393.03010510871496	393.08008239785005	0.0499772891344037	67787
67.887	50	443	0	0	pulley	1250	134	1	stimuli\pulley\pulley_04s.jpg	3	-1	1	0	pulley_04s.jpg	0	0.0	0	393.130107717472	393.18008817612997	0.0499804586579558	67887
67.987	50	444	0	0	toolbox	1677	135	1	stimuli\toolbox\toolbox_10s.jpg	9	-1	1	0	toolbox_10s.jpg	0	0.0	0	393.230112032907	393.28009029728105	0.0499782643746585	67987
68.087	50	445	0	0	tooth	1678	136	1	stimuli\tooth\tooth_01b.jpg	0	-1	1	0	tooth_01b.jpg	0	0.0	0	393.330116835947	393.380091199389	0.0499743634427432	68087
68.187	50	446	0	0	wire_cutters	1829	137	1	stimuli\wire_cutters\wire_cutters_12s.jpg	11	-1	1	0	wire_cutters_12s.jpg	0	0.0	0	393.430113349459	393.480099415756	0.0499860662966967	68187
68.287	50	447	0	0	bubble	207	138	1	stimuli\bubble\bubble_09s.jpg	8	-1	1	0	bubble_09s.jpg	0	0.0	0	393.53011912773906	393.580094710225	0.0499755824857857	68287
68.387	50	448	0	0	screwdriver	1391	139	1	stimuli\screwdriver\screwdriver_05s.jpg	4	-1	1	0	screwdriver_05s.jpg	0	0.0	0	393.630120029848	393.680110240908	0.0499902110605035	68387
68.487	50	449	0	0	mint	1004	140	1	stimuli\mint\mint_11s.jpg	10	-1	1	0	mint_11s.jpg	0	0.0	0	393.730123857647	393.78010699822306	0.0499831405759323	68487
68.587	50	450	0	0	toothpick	1681	141	1	stimuli\toothpick\toothpick_01b.jpg	0	-1	1	0	toothpick_01b.jpg	0	0.0	0	393.83012817308196	393.88010497461096	0.0499768015288282	68587
68.687	50	451	0	0	dandelion	472	142	1	stimuli\dandelion\dandelion_08s.jpg	7	-1	1	0	dandelion_08s.jpg	0	0.0	0	393.930129318993	393.98010831480497	0.0499789958121255	68687
68.787	50	452	0	0	saucer	1363	143	1	stimuli\saucer\saucer_03s.jpg	2	-1	1	0	saucer_03s.jpg	0	0.0	0	394.030133146793	394.08011019212404	0.049977045331616	68787
68.887	50	453	0	0	tablet	1610	144	1	stimuli\tablet\tablet_03s.jpg	2	-1	1	0	tablet_03s.jpg	0	0.0	0	394.130133317463	394.180112557078	0.0499792396149132	68887
68.987	50	454	0	0	sandbag	1353	145	1	stimuli\sandbag\sandbag_06s.jpg	5	-1	1	0	sandbag_06s.jpg	0	0.0	0	394.23013787670095	394.28011540966696	0.0499775329662953	68987
69.087	50	455	0	0	phone	1161	146	1	stimuli\phone\phone_10s.jpg	9	-1	1	0	phone_10s.jpg	0	0.0	0	394.33013999785203	394.38011874986097	0.0499787520093378	69087
69.187	50	456	0	0	pumpkin	1253	147	1	stimuli\pumpkin\pumpkin_11s.jpg	10	-1	1	0	pumpkin_11s.jpg	0	0.0	0	394.43014309421403	394.480121358618	0.0499782644037623	69187
69.287	50	457	0	0	boa	150	148	1	stimuli\boa\boa_08s.jpg	7	-1	1	0	boa_08s.jpg	0	0.0	0	394.530157405854	394.580123723572	0.0499663177179173	69287
69.387	50	458	0	0	boxer_shorts	182	149	1	stimuli\boxer_shorts\boxer_shorts_02s.jpg	1	-1	1	0	boxer_shorts_02s.jpg	0	0.0	0	394.63014977460296	394.680128038977	0.0499782643746585	69387
69.487	50	459	0	0	domino	503	150	1	stimuli\domino\domino_04s.jpg	3	-1	1	0	domino_04s.jpg	0	0.0	0	394.73015189575403	394.78012967252295	0.049977776769083	69487
69.587	50	460	0	0	spaghetti	1503	151	1	stimuli\spaghetti\spaghetti_08s.jpg	7	-1	1	0	spaghetti_08s.jpg	0	0.0	0	394.83015304166497	394.880132525082	0.049979483417701	69587
69.687	50	461	0	0	nail_file	1048	152	1	stimuli\nail_file\nail_file_06s.jpg	5	-1	1	0	nail_file_06s.jpg	0	0.0	0	394.930157113267	394.980136840517	0.0499797272495925	69687
69.787	50	462	0	0	dashboard	475	153	1	stimuli\dashboard\dashboard_03s.jpg	2	-1	1	0	dashboard_03s.jpg	0	0.0	0	395.030161916307	395.080138717836	0.0499768015288282	69787
69.887	50	463	0	0	jam	839	154	1	stimuli\jam\jam_06s.jpg	5	-1	1	0	jam_06s.jpg	0	0.0	0	395.130162818416	395.18014108279	0.0499782643746585	69887
69.987	50	464	0	0	mustard	1044	155	1	stimuli\mustard\mustard_04s.jpg	3	-1	1	0	mustard_04s.jpg	0	0.0	0	395.23016420812894	395.280144666787	0.0499804586579558	69987
70.087	50	465	0	0	bathtub	91	156	1	stimuli\bathtub\bathtub_03s.jpg	2	-1	1	0	bathtub_03s.jpg	0	0.0	0	395.330168279761	395.38014800698096	0.0499797272204887	70087
70.187	50	466	0	0	nutcracker	1067	157	1	stimuli\nutcracker\nutcracker_03s.jpg	2	-1	1	0	nutcracker_03s.jpg	0	0.0	0	395.430172107561	395.480150128133	0.0499780205718707	70187
70.287	50	467	0	0	jewel	849	158	1	stimuli\jewel\jewel_09s.jpg	8	-1	1	0	jewel_09s.jpg	0	0.0	0	395.530171790597	395.580151030212	0.0499792396149132	70287
70.387	50	468	0	0	straw2	1569	159	1	stimuli\straw2\straw2_02s.jpg	1	-1	1	0	straw2_02s.jpg	0	0.0	0	395.63017683746904	395.680164122808	0.0499872853397392	70387
70.487	50	469	0	0	peeler	1138	160	1	stimuli\peeler\peeler_12s.jpg	11	-1	1	0	peeler_12s.jpg	0	0.0	0	395.730179202423	395.780156003952	0.0499768015288282	70487
70.587	50	470	0	0	gift	672	161	1	stimuli\gift\gift_01b.jpg	0	-1	1	0	gift_01b.jpg	0	0.0	0	395.830180104502	395.880159100314	0.0499789958121255	70587
70.687	50	471	0	0	stool	1561	162	1	stimuli\stool\stool_09s.jpg	8	-1	1	0	stool_09s.jpg	0	0.0	0	395.93018515137396	395.98016195290296	0.0499768015288282	70687
70.787	50	472	0	0	teabag	1632	163	1	stimuli\teabag\teabag_07s.jpg	6	-1	1	0	teabag_07s.jpg	0	0.0	0	396.030184590607	396.08016407402494	0.049979483417701	70787
70.887	50	473	0	0	leech	909	164	1	stimuli\leech\leech_08s.jpg	7	-1	1	0	leech_08s.jpg	0	0.0	0	396.130190856493	396.180168389459	0.0499775329662953	70887
70.987	50	474	0	0	tarantula	1626	165	1	stimuli\tarantula\tarantula_10s.jpg	9	-1	1	0	tarantula_10s.jpg	0	0.0	0	396.230192002404	396.280170022976	0.0499780205718707	70987
71.087	50	475	0	0	brush	205	166	1	stimuli\brush\brush_10s.jpg	9	-1	1	0	brush_10s.jpg	0	0.0	0	396.33019314831495	396.380171900324	0.0499787520093378	71087
71.187	50	476	0	0	canvas	264	167	1	stimuli\canvas\canvas_11s.jpg	10	-1	1	0	canvas_11s.jpg	0	0.0	0	396.43019697611504	396.480174752884	0.049977776769083	71187
71.287	50	477	0	0	coat	369	168	1	stimuli\coat\coat_04s.jpg	3	-1	1	0	coat_04s.jpg	0	0.0	0	396.530198853463	396.58017833688103	0.049979483417701	71287
71.387	50	478	0	0	kayak	863	169	1	stimuli\kayak\kayak_01b.jpg	0	-1	1	0	kayak_01b.jpg	0	0.0	0	396.630207069829	396.68018411516096	0.049977045331616	71387
71.487	50	479	0	0	tamale	1618	170	1	stimuli\tamale\tamale_12s.jpg	11	-1	1	0	tamale_12s.jpg	0	0.0	0	396.73020821574	396.780183310591	0.0499750948511064	71487
71.587	50	480	0	0	handlebar	749	171	1	stimuli\handlebar\handlebar_06s.jpg	5	-1	1	0	handlebar_06s.jpg	0	0.0	0	396.830207898776	396.88018713842	0.0499792396440171	71587
71.687	50	481	0	0	yarn	1846	172	1	stimuli\yarn\yarn_09s.jpg	8	-1	1	0	yarn_09s.jpg	0	0.0	0	396.93021026373003	396.980189259542	0.0499789958121255	71687
71.787	50	482	0	0	baseball_bat	79	173	1	stimuli\baseball_bat\baseball_bat_08s.jpg	7	-1	1	1	baseball_bat_08s.jpg	0	0.0	0	397.030214091559	397.080193087371	0.0499789958121255	71787
71.887	50	483	0	0	peppermint	1152	174	1	stimuli\peppermint\peppermint_11s.jpg	10	-1	1	0	peppermint_11s.jpg	0	0.0	0	397.130216944119	397.180197158974	0.049980214855167994	71887
71.987	50	484	0	0	grain	698	175	1	stimuli\grain\grain_01b.jpg	0	-1	1	0	grain_01b.jpg	0	0.0	0	397.23022028431296	397.280209276301	0.0499889919883572	71987
72.087	50	485	0	0	flan	609	176	1	stimuli\flan\flan_04s.jpg	3	-1	1	0	flan_04s.jpg	1	0.300197266245959	1	397.330233620683	397.38021017840896	0.0499765577260405	72087
72.187	50	486	0	0	golf_cart	689	177	1	stimuli\golf_cart\golf_cart_12s.jpg	11	-1	1	0	golf_cart_12s.jpg	0	0.0	0	397.43023501039704	397.48021620049303	0.0499811900954228	72187
72.287	50	487	0	0	paper_bag	1113	178	1	stimuli\paper_bag\paper_bag_11s.jpg	10	-1	1	0	paper_bag_11s.jpg	0	0.0	0	397.530228354415	397.58021515212005	0.0499867977050599	72287
72.388	50	488	0	0	timer	1661	179	1	stimuli\timer\timer_08s.jpg	7	-1	1	0	timer_08s.jpg	0	0.0	0	397.630241446983	397.680219467555	0.0499780205718707	72388
72.488	50	489	0	0	prune	1244	180	1	stimuli\prune\prune_06s.jpg	5	-1	1	0	prune_06s.jpg	0	0.0	0	397.73024308049895	397.780210861063	0.0499677805637475	72488
72.587	50	490	0	0	airboat	8	181	1	stimuli\airboat\airboat_07s.jpg	6	-1	1	0	airboat_07s.jpg	0	0.0	0	397.83023618068495	397.88022517270304	0.049988992017460994	72587
72.688	50	491	0	0	axe	45	182	1	stimuli\axe\axe_03n.jpg	2	-1	1	0	axe_03n.jpg	0	0.0	0	397.930249517056	397.980233876704	0.0499843596480787	72688
72.788	50	492	0	0	filter	587	183	1	stimuli\filter\filter_03s.jpg	2	-1	1	0	filter_03s.jpg	0	0.0	0	398.03025212584197	398.080217468319	0.0499653424776625	72788
72.888	50	493	0	0	eclair	544	184	1	stimuli\eclair\eclair_04s.jpg	3	-1	1	0	eclair_04s.jpg	0	0.0	0	398.130253027921	398.180219833273	0.0499668053525966	72888
72.988	50	494	0	0	air_conditioner	4	185	1	stimuli\air_conditioner\air_conditioner_08s.jpg	7	-1	1	0	air_conditioner_08s.jpg	0	0.0	0	398.230256124312	398.280224148679	0.0499680243665352	72988
73.088	50	495	0	0	sandpaper	1356	186	1	stimuli\sandpaper\sandpaper_06s.jpg	5	-1	1	0	sandpaper_06s.jpg	0	0.0	0	398.330258976872	398.380226026027	0.0499670491553843	73088
73.188	50	496	0	0	trolley	1715	187	1	stimuli\trolley\trolley_03s.jpg	2	-1	1	0	trolley_03s.jpg	0	0.0	0	398.430262804701	398.480228878587	0.0499660738860257	73188
73.288	50	497	0	0	mashed_potato	979	188	1	stimuli\mashed_potato\mashed_potato_09s.jpg	8	-1	1	0	mashed_potato_09s.jpg	0	0.0	0	398.530262975342	398.580245140678	0.0499821653356776	73288
73.388	50	498	0	0	bolo_tie	157	189	1	stimuli\bolo_tie\bolo_tie_07s.jpg	6	-1	1	0	bolo_tie_07s.jpg	0	0.0	0	398.630267778412	398.680246530392	0.0499787519802339	73388
73.488	50	499	0	0	strap	1567	190	1	stimuli\strap\strap_01b.jpg	0	-1	1	0	strap_01b.jpg	0	0.0	0	398.73027306905703	398.78023914297205	0.0499660739151295	73488
73.588	50	500	0	0	hubcap	809	191	1	stimuli\hubcap\hubcap_08s.jpg	7	-1	1	0	hubcap_08s.jpg	0	0.0	0	398.830273971165	398.88025784317904	0.0499838720133994	73588
73.688	50	501	0	0	glue	681	192	1	stimuli\glue\glue_12s.jpg	11	-1	1	0	glue_12s.jpg	0	0.0	0	398.93027584848505	398.980256794777	0.0499809462926351	73688
73.788	50	502	0	0	chinchilla	332	193	1	stimuli\chinchilla\chinchilla_06s.jpg	5	-1	1	0	chinchilla_06s.jpg	0	0.0	0	399.03027894487604	399.08024477498805	0.0499658301123418	73788
73.888	50	503	0	0	corn	412	194	1	stimuli\corn\corn_07s.jpg	6	-1	1	0	corn_07s.jpg	0	0.0	0	399.130281797436	399.180249090394	0.049967292958172004	73888
73.988	50	504	0	0	necklace	1054	195	1	stimuli\necklace\necklace_05s.jpg	4	-1	1	0	necklace_05s.jpg	0	0.0	0	399.230284893827	399.280261207721	0.0499763138941489	73988
74.088	50	505	0	0	polaroid	1212	196	1	stimuli\polaroid\polaroid_05s.jpg	4	-1	1	0	polaroid_05s.jpg	0	0.0	0	399.330288965459	399.380267473636	0.0499785081774462	74088
74.188	50	506	0	0	roulette_wheel	1335	197	1	stimuli\roulette_wheel\roulette_wheel_08s.jpg	7	-1	1	0	roulette_wheel_08s.jpg	0	0.0	0	399.430288404692	399.48025691669295	0.0499685120012145	74188
74.288	50	507	0	0	inkwell	830	198	1	stimuli\inkwell\inkwell_11s.jpg	10	-1	1	0	inkwell_11s.jpg	0	0.0	0	399.530291988689	399.580273178784	0.0499811900954228	74288
74.388	50	508	0	0	cruise_ship	450	199	1	stimuli\cruise_ship\cruise_ship_06s.jpg	5	-1	1	0	cruise_ship_06s.jpg	0	0.0	0	399.630294841249	399.680273105652	0.0499782644037623	74388
74.488	50	509	0	0	syringe	1604	200	1	stimuli\syringe\syringe_03s.jpg	2	-1	1	0	syringe_03s.jpg	0	0.0	0	399.730321099545	399.780264499161	0.0499433996155858	74488
74.588	50	510	0	0	harness	754	201	1	stimuli\harness\harness_04s.jpg	3	-1	1	0	harness_04s.jpg	0	0.0	0	399.830299571157	399.880280761252	0.0499811900954228	74588
74.688	50	511	0	0	record_player	1296	202	1	stimuli\record_player\record_player_07s.jpg	6	-1	1	0	record_player_07s.jpg	0	0.0	0	399.93030315515404	399.98028215096605	0.0499789958121255	74688
74.788	50	512	0	0	revolving_door	1305	203	1	stimuli\revolving_door\revolving_door_02s.jpg	1	-1	1	0	revolving_door_02s.jpg	0	0.0	0	400.030305032502	400.080272813066	0.0499677805637475	74788
74.888	50	513	0	0	marijuana	974	204	1	stimuli\marijuana\marijuana_06n.jpg	5	-1	1	0	marijuana_06n.jpg	0	0.0	0	400.130309835542	400.180275909457	0.0499660739151295	74888
74.988	50	514	0	0	canister	259	205	1	stimuli\canister\canister_10s.jpg	9	-1	1	0	canister_10s.jpg	0	0.0	0	400.230300010007	400.28027851821406	0.049978508206550004	74988
75.088	50	515	0	0	pliers	1201	206	1	stimuli\pliers\pliers_07s.jpg	6	-1	1	0	pliers_07s.jpg	0	0.0	0	400.330301155918	400.380291366979	0.0499902110605035	75088
75.188	50	516	0	0	catapult	285	207	1	stimuli\catapult\catapult_05s.jpg	4	-1	1	0	catapult_05s.jpg	0	0.0	0	400.430304008478	400.480295194779	0.0499911863007583	75188
75.288	50	517	0	0	trough	1718	208	1	stimuli\trough\trough_05s.jpg	4	-1	1	0	trough_05s.jpg	0	0.0	0	400.530318076286	400.580297072098	0.0499789958121255	75288
75.388	50	518	0	0	confetti	396	209	1	stimuli\confetti\confetti_03s.jpg	2	-1	1	0	confetti_03s.jpg	0	0.0	0	400.63032068507204	400.680298949446	0.0499782643746585	75388
75.488	50	519	0	0	window	1818	210	1	stimuli\window\window_04s.jpg	3	-1	1	0	window_04s.jpg	0	0.0	0	400.73032500047697	400.78029180583	0.0499668053525966	75488
75.588	50	520	0	0	sheep	1414	211	1	stimuli\sheep\sheep_10s.jpg	9	-1	1	0	sheep_10s.jpg	0	0.0	0	400.83032712162805	400.880293926981	0.0499668053525966	75588
75.688	50	521	0	0	overalls	1090	212	1	stimuli\overalls\overalls_02s.jpg	1	-1	1	0	overalls_02s.jpg	0	0.0	0	400.93033875135	400.980297754781	0.0499590034305584	75688
75.788	50	522	0	0	wire	1828	213	1	stimuli\wire\wire_07s.jpg	6	-1	1	0	wire_07s.jpg	0	0.0	0	401.030320148682	401.080298413057	0.0499782643746585	75788
75.888	50	523	0	0	shoulder	1431	214	1	stimuli\shoulder\shoulder_02s.jpg	1	-1	1	0	shoulder_02s.jpg	0	0.0	0	401.130334947928	401.18030345992895	0.0499685120012145	75888
75.988	50	524	0	0	dalmatian	471	215	1	stimuli\dalmatian\dalmatian_01b.jpg	0	-1	1	0	dalmatian_01b.jpg	0	0.0	0	401.230339507165	401.280302899162	0.0499633919971529	75988
76.088	50	525	0	0	flask	612	216	1	stimuli\flask\flask_10s.jpg	9	-1	1	0	flask_10s.jpg	0	0.0	0	401.330342115922	401.380320136494	0.0499780205718707	76088
76.188	50	526	0	0	costume	419	217	1	stimuli\costume\costume_02s.jpg	1	-1	1	0	costume_02s.jpg	0	0.0	0	401.430344237073	401.480312992877	0.0499687558040023	76188
76.288	50	527	0	0	mosquito	1020	218	1	stimuli\mosquito\mosquito_01b.jpg	0	-1	1	0	mosquito_01b.jpg	0	0.0	0	401.53033416773496	401.580311700673	0.0499775329371914	76288
76.388	50	528	0	0	urinal	1748	219	1	stimuli\urinal\urinal_03s.jpg	2	-1	1	0	urinal_03s.jpg	0	0.0	0	401.630347504106	401.680330400879	0.0499828967731446	76388
76.488	50	529	0	0	stingray	1556	220	1	stimuli\stingray\stingray_04s.jpg	3	-1	1	0	stingray_04s.jpg	0	0.0	0	401.730351088103	401.78033105915495	0.0499799710523803	76488
76.588	50	530	0	0	dart	473	221	1	stimuli\dart\dart_09s.jpg	8	-1	1	0	dart_09s.jpg	0	0.0	0	401.83034126259696	401.880333667912	0.049992405314697	76588
76.688	50	531	0	0	handle	748	222	1	stimuli\handle\handle_06s.jpg	5	-1	1	0	handle_06s.jpg	0	0.0	0	401.93035533037596	401.980323110969	0.0499677805928513	76688
76.788	50	532	0	0	blouse	144	223	1	stimuli\blouse\blouse_11s.jpg	10	-1	1	0	blouse_11s.jpg	0	0.0	0	402.03035769533	402.08032523212006	0.0499675367900636	76788
76.888	50	533	0	0	snail	1476	224	1	stimuli\snail\snail_08s.jpg	7	-1	1	0	snail_08s.jpg	0	0.0	0	402.130361279356	402.180330766598	0.0499694872414693	76888
76.988	50	534	0	0	baseball	78	225	1	stimuli\baseball\baseball_06s.jpg	5	-1	1	0	baseball_06s.jpg	0	0.0	0	402.230365350959	402.280343615334	0.0499782643746585	76988
77.088	50	535	0	0	iceskate	823	226	1	stimuli\iceskate\iceskate_08s.jpg	7	-1	1	0	iceskate_08s.jpg	0	0.0	0	402.330366740673	402.38033427743403	0.0499675367609598	77088
77.188	50	536	0	0	cigar	343	227	1	stimuli\cigar\cigar_03s.jpg	2	-1	1	0	cigar_03s.jpg	0	0.0	0	402.430371787545	402.480335179542	0.0499633919971529	77188
77.288	50	537	0	0	baton1	92	228	1	stimuli\baton1\baton1_11s.jpg	10	-1	1	0	baton1_11s.jpg	0	0.0	0	402.530373908667	402.580339494976	0.0499655863095541	77288
77.388	50	538	0	0	pipe2	1187	229	1	stimuli\pipe2\pipe2_03s.jpg	2	-1	1	0	pipe2_03s.jpg	0	0.0	0	402.630373104097	402.680353806587	0.0499807024898473	77388
77.488	50	539	0	0	antenna	27	230	1	stimuli\antenna\antenna_04n.jpg	3	-1	1	0	antenna_04n.jpg	0	0.0	0	402.730378882377	402.780356171541	0.0499772891635075	77488
77.588	50	540	0	0	camel	245	231	1	stimuli\camel\camel_01b.jpg	0	-1	1	0	camel_01b.jpg	0	0.0	0	402.83038173496595	402.880351953616	0.0499702186498325	77588
77.688	50	541	0	0	basket	82	232	1	stimuli\basket\basket_05s.jpg	4	-1	1	0	basket_05s.jpg	0	0.0	0	402.93038483132796	402.98036309573195	0.0499782644037623	77688
77.788	50	542	0	0	insole	831	233	1	stimuli\insole\insole_02s.jpg	1	-1	1	0	insole_02s.jpg	0	0.0	0	403.030388171523	403.08036765496905	0.0499794834468048	77788
77.888	50	543	0	0	lion	933	234	1	stimuli\lion\lion_02s.jpg	1	-1	1	0	lion_02s.jpg	0	0.0	0	403.130390048871	403.18035782943497	0.0499677805637475	77888
77.988	50	544	0	0	brass_knuckles	193	235	1	stimuli\brass_knuckles\brass_knuckles_03s.jpg	2	-1	1	0	brass_knuckles_03s.jpg	0	0.0	0	403.23038217381696	403.28035848771106	0.0499763138941489	77988
78.088	50	545	0	0	grenade	713	236	1	stimuli\grenade\grenade_07s.jpg	6	-1	1	0	grenade_07s.jpg	0	0.0	0	403.33039843590797	403.380372799351	0.0499743634427432	78088
78.188	50	546	0	0	lock	940	237	1	stimuli\lock\lock_08s.jpg	7	-1	1	0	lock_08s.jpg	0	0.0	0	403.43039909418405	403.480375408108	0.0499763139232527	78188
78.288	50	547	0	0	rocking_horse	1322	238	1	stimuli\rocking_horse\rocking_horse_02s.jpg	1	-1	1	0	rocking_horse_02s.jpg	0	0.0	0	403.530403897254	403.580366801616	0.0499629043624736	78288
78.388	50	548	0	0	microscope	999	239	1	stimuli\microscope\microscope_09s.jpg	8	-1	1	0	microscope_09s.jpg	0	0.0	0	403.63040772505303	403.680383307539	0.0499755824857857	78388
78.488	50	549	0	0	clothespin	363	240	1	stimuli\clothespin\clothespin_02s.jpg	1	-1	1	0	clothespin_02s.jpg	0	0.0	0	403.73040497000295	403.78038640390196	0.0499814338982105	78488
78.588	50	550	0	0	lanyard	896	241	1	stimuli\lanyard\lanyard_01b.jpg	0	-1	1	0	lanyard_01b.jpg	0	0.0	0	403.830406115914	403.880387549812	0.0499814338982105	78588
78.688	50	551	0	0	saw	1366	242	1	stimuli\saw\saw_10s.jpg	9	-1	1	0	saw_10s.jpg	0	0.0	0	403.930412869435	403.980376992869	0.049964123434620006	78688
78.788	50	552	0	0	cane	258	243	1	stimuli\cane\cane_02s.jpg	1	-1	1	0	cane_02s.jpg	0	0.0	0	404.03041279630304	404.080381552107	0.0499687558040023	78788
78.888	50	553	0	0	popcorn	1223	244	1	stimuli\popcorn\popcorn_09s.jpg	8	-1	1	0	popcorn_09s.jpg	0	0.0	0	404.13043052124	404.18038294181997	0.0499524205806665	78888
78.988	50	554	0	0	icemaker	821	245	1	stimuli\icemaker\icemaker_12s.jpg	11	-1	1	0	icemaker_12s.jpg	0	0.0	0	404.230417526182	404.280387013423	0.0499694872414693	78988
79.088	50	555	0	0	potato	1231	246	1	stimuli\potato\potato_09s.jpg	8	-1	1	0	potato_09s.jpg	1	0.0	0	404.330421110179	404.38039352314104	0.0499724129622336	79088
79.188	50	556	0	0	notebook	1064	247	1	stimuli\notebook\notebook_01b.jpg	0	-1	1	0	notebook_01b.jpg	0	0.0	0	404.430424938007	404.48039076809096	0.049965830083237996	79188
79.288	50	557	0	0	nail	1046	248	1	stimuli\nail\nail_10s.jpg	9	-1	1	0	nail_10s.jpg	0	0.0	0	404.53042900961	404.58039557115995	0.0499665615498088	79288
79.388	50	558	0	0	oyster	1092	249	1	stimuli\oyster\oyster_02n.jpg	1	-1	1	0	oyster_02n.jpg	0	0.0	0	404.63043137456395	404.680403299921	0.0499719253566582	79388
79.488	50	559	0	0	tadpole	1614	250	1	stimuli\tadpole\tadpole_08s.jpg	7	-1	1	0	tadpole_08s.jpg	0	0.0	0	404.730430813797	404.78039298678	0.0499621729832143	79488
79.588	50	560	0	0	coffee_bean	378	251	1	stimuli\coffee_bean\coffee_bean_09s.jpg	8	-1	1	0	coffee_bean_09s.jpg	0	0.0	0	404.830418062571	404.880410711718	0.0499926491465885	79588
79.688	50	561	0	0	soup	1499	252	1	stimuli\soup\soup_10s.jpg	9	-1	1	0	soup_10s.jpg	0	0.0	0	404.93043676274806	404.98043136237504	0.0499945996270981	79688
79.788	50	562	0	0	hatbox	758	253	1	stimuli\hatbox\hatbox_03s.jpg	2	-1	1	0	hatbox_03s.jpg	0	0.0	0	405.03043620201106	405.080413491145	0.0499772891344037	79788
79.888	50	563	0	0	wrist	1842	254	1	stimuli\wrist\wrist_09s.jpg	8	-1	1	0	wrist_09s.jpg	0	0.0	0	405.13044368694	405.180417562777	0.0499738758371677	79888
79.988	50	564	0	0	handkerchief	747	255	1	stimuli\handkerchief\handkerchief_07s.jpg	6	-1	1	0	handkerchief_07s.jpg	0	0.0	0	405.230434592871	405.28041992770204	0.0499853348301258	79988
80.088	50	565	0	0	cream	436	256	1	stimuli\cream\cream_11s.jpg	10	-1	1	0	cream_11s.jpg	0	0.0	0	405.330445491156	405.38041497839697	0.0499694872414693	80088
80.188	50	566	0	0	lobster	939	257	1	stimuli\lobster\lobster_04s.jpg	3	-1	1	0	lobster_04s.jpg	0	0.0	0	405.430450537999	405.48041344239	0.0499629043915775	80188
80.288	50	567	0	0	scale	1371	258	1	stimuli\scale\scale_11s.jpg	10	-1	1	0	scale_11s.jpg	0	0.0	0	405.530450221035	405.580427510198	0.0499772891635075	80288
80.388	50	568	0	0	kite	874	259	1	stimuli\kite\kite_07s.jpg	6	-1	1	0	kite_07s.jpg	0	0.0	0	405.63045648695	405.68041963514395	0.0499631481943652	80388
80.488	50	569	0	0	burner	224	260	1	stimuli\burner\burner_04s.jpg	3	-1	1	0	burner_04s.jpg	0	0.0	0	405.730444954766	405.780423706776	0.0499787520093378	80488
80.588	50	570	0	0	hopscotch	796	261	1	stimuli\hopscotch\hopscotch_07s.jpg	6	-1	1	0	hopscotch_07s.jpg	0	0.0	0	405.830461216858	405.880437286949	0.0499760700913612	80588
80.688	50	571	0	0	drain	515	262	1	stimuli\drain\drain_04s.jpg	3	-1	1	0	drain_04s.jpg	0	0.0	0	405.930462362769	405.980425023328	0.0499626605596859	80688
80.788	50	572	0	0	parrot	1121	263	1	stimuli\parrot\parrot_05s.jpg	4	-1	1	0	parrot_05s.jpg	0	0.0	0	406.03046350865	406.08044323589996	0.0499797272495925	80788
80.888	50	573	0	0	mole	1014	264	1	stimuli\mole\mole_12s.jpg	11	-1	1	0	mole_12s.jpg	0	0.0	0	406.13046636123903	406.18043243515405	0.0499660739151295	80888
80.988	50	574	0	0	tongs	1674	265	1	stimuli\tongs\tongs_02s.jpg	1	-1	1	0	tongs_02s.jpg	0	0.0	0	406.230471651914	406.280437481997	0.049965830083237996	80988
81.088	50	575	0	0	wolf	1831	266	1	stimuli\wolf\wolf_08n.jpg	7	-1	1	0	wolf_08n.jpg	0	0.0	0	406.330473529233	406.38045252504503	0.0499789958121255	81088
81.188	50	576	0	0	shaving_cream	1410	267	1	stimuli\shaving_cream\shaving_cream_10s.jpg	9	-1	1	0	shaving_cream_10s.jpg	0	0.0	0	406.430475406552	406.480442211905	0.0499668053525966	81188
81.288	50	577	0	0	lamppost	892	268	1	stimuli\lamppost\lamppost_10s.jpg	9	-1	1	0	lamppost_10s.jpg	0	0.0	0	406.530478990579	406.58044262637804	0.0499636357999407	81288
81.388	50	578	0	0	stew	1551	269	1	stimuli\stew\stew_02s.jpg	1	-1	1	0	stew_02s.jpg	0	0.0	0	406.630476479331	406.680457669427	0.0499811900954228	81388
81.488	50	579	0	0	wheelbarrow	1807	270	1	stimuli\wheelbarrow\wheelbarrow_06s.jpg	5	-1	1	0	wheelbarrow_06s.jpg	0	0.0	0	406.73048347665497	406.7804580839	0.0499746072455309	81488
81.588	50	580	0	0	camper	249	271	1	stimuli\camper\camper_11s.jpg	10	-1	1	0	camper_11s.jpg	0	0.0	0	406.830486329243	406.88045069648103	0.0499643672374077	81588
81.688	50	581	0	0	shredder	1437	272	1	stimuli\shredder\shredder_09s.jpg	8	-1	1	0	shredder_09s.jpg	0	0.0	0	406.930490400846	406.980464520486	0.0499741196399555	81688
81.788	50	582	0	0	waterwheel	1794	273	1	stimuli\waterwheel\waterwheel_12s.jpg	11	-1	1	0	waterwheel_12s.jpg	0	0.0	0	407.030493497237	407.08046737304494	0.0499738758080639	81788
81.888	50	583	0	0	engine	557	274	1	stimuli\engine\engine_10s.jpg	9	-1	1	0	engine_10s.jpg	0	0.0	0	407.1304965936	407.180459497991	0.0499629043915775	81888
81.988	50	584	0	0	coyote	427	275	1	stimuli\coyote\coyote_09s.jpg	8	-1	1	0	coyote_09s.jpg	0	0.0	0	407.230498470948	407.28046259438304	0.049964123434620006	81988
82.088	50	585	0	0	hook1	793	276	1	stimuli\hook1\hook1_07s.jpg	6	-1	1	0	hook1_07s.jpg	0	0.0	0	407.33049937302695	407.380478368839	0.0499789958121255	82088
82.188	50	586	0	0	throne	1652	277	1	stimuli\throne\throne_01b.jpg	0	-1	1	0	throne_01b.jpg	0	0.0	0	407.430506614182	407.48046756809305	0.0499609539110679	82188
82.288	50	587	0	0	locker	941	278	1	stimuli\locker\locker_11n.jpg	10	-1	1	0	locker_11n.jpg	0	0.0	0	407.53050727245903	407.580470420653	0.0499631481943652	82288
82.388	50	588	0	0	praying_mantis	1238	279	1	stimuli\praying_mantis\praying_mantis_01b.jpg	0	-1	1	0	praying_mantis_01b.jpg	0	0.0	0	407.63050695552397	407.680473517044	0.049966561520705	82388
82.488	50	589	0	0	ironing_board	833	280	1	stimuli\ironing_board\ironing_board_02s.jpg	1	-1	1	0	ironing_board_02s.jpg	0	0.0	0	407.730499324272	407.780474175321	0.0499748510483187	82488
82.588	50	590	0	0	face	569	281	1	stimuli\face\face_08s.jpg	7	-1	1	0	face_08s.jpg	0	0.0	0	407.830502176861	407.880492631695	0.0499904548341874	82588
82.688	50	591	0	0	punching_bag	1256	282	1	stimuli\punching_bag\punching_bag_06s.jpg	5	-1	1	0	punching_bag_06s.jpg	0	0.0	0	407.93051307514503	407.980481343315	0.049968268169323	82688
82.788	50	592	0	0	hyena	815	283	1	stimuli\hyena\hyena_10s.jpg	9	-1	1	1	hyena_10s.jpg	0	0.0	0	408.030519097229	408.08048443970597	0.0499653424776625	82788
82.888	50	593	0	0	shield	1420	284	1	stimuli\shield\shield_04s.jpg	3	-1	1	0	shield_04s.jpg	0	0.0	0	408.13052268122595	408.180486560857	0.0499638796318322	82888
82.988	50	594	0	0	salad	1348	285	1	stimuli\salad\salad_08s.jpg	7	-1	1	0	salad_08s.jpg	0	0.0	0	408.230511392845	408.28048916961404	0.049977776769083	82988
83.088	50	595	0	0	wheelchair	1808	286	1	stimuli\wheelchair\wheelchair_01b.jpg	0	-1	1	0	wheelchair_01b.jpg	1	0.34190380593645403	1	408.33051107588096	408.380504456465	0.0499933805840556	83088
83.188	50	596	0	0	pear	1133	287	1	stimuli\pear\pear_01b.jpg	0	-1	1	0	pear_01b.jpg	0	0.0	0	408.430516366556	408.480496581411	0.049980214855167994	83188
83.288	50	597	0	0	wax_paper	1796	288	1	stimuli\wax_paper\wax_paper_08s.jpg	7	-1	1	0	wax_paper_08s.jpg	0	0.0	0	408.530523851514	408.580509430176	0.0499855786620174	83288
83.388	50	598	0	0	floss	617	289	1	stimuli\floss\floss_06s.jpg	5	-1	1	0	floss_06s.jpg	0	0.0	0	408.630526704073	408.68051179513003	0.0499850910564419	83388
83.488	50	599	0	0	collar	387	290	1	stimuli\collar\collar_09s.jpg	8	-1	1	0	collar_09s.jpg	0	0.0	0	408.730524436658	408.78051367247804	0.0499892358202487	83488
83.588	50	600	0	0	frog	644	291	1	stimuli\frog\frog_12s.jpg	11	-1	1	0	frog_12s.jpg	0	0.0	0	408.830528264458	408.880519450759	0.0499911863007583	83588
83.688	50	601	0	0	omelet	1076	292	1	stimuli\omelet\omelet_01b.jpg	0	-1	1	0	omelet_01b.jpg	0	0.0	0	408.93053331132995	408.98050743094103	0.0499741196108516	83688
83.788	50	602	0	0	surfboard	1587	293	1	stimuli\surfboard\surfboard_04s.jpg	3	-1	1	0	surfboard_04s.jpg	0	0.0	0	409.03054347817704	409.080511502572	0.0499680243956391	83788
83.888	50	603	0	0	stuffing	1575	294	1	stimuli\stuffing\stuffing_02s.jpg	1	-1	1	0	stuffing_02s.jpg	0	0.0	0	409.13054974409204	409.180513379892	0.0499636357999407	83888
83.988	50	604	0	0	chicken1	322	295	1	stimuli\chicken1\chicken1_07s.jpg	6	-1	1	0	chicken1_07s.jpg	0	0.0	0	409.230550402368	409.280515501043	0.0499650986748748	83988
84.088	50	605	0	0	chest2	320	296	1	stimuli\chest2\chest2_11s.jpg	10	-1	1	0	chest2_11s.jpg	0	0.0	0	409.330553498759	409.380530300288	0.0499768015288282	84088
84.188	50	606	0	0	keyhole	871	297	1	stimuli\keyhole\keyhole_09s.jpg	8	-1	1	0	keyhole_09s.jpg	0	0.0	0	409.430557570362	409.48053242141	0.0499748510483187	84188
84.288	50	607	0	0	pecan	1135	298	1	stimuli\pecan\pecan_09s.jpg	8	-1	1	0	pecan_09s.jpg	0	0.0	0	409.53055798483496	409.580524058751	0.0499660739151295	84288
84.388	50	608	0	0	coral	406	299	1	stimuli\coral\coral_11s.jpg	10	-1	1	0	coral_11s.jpg	0	0.0	0	409.63056473835604	409.68054153988504	0.0499768015288282	84388
84.488	50	609	0	0	potpie	1234	300	1	stimuli\potpie\potpie_03s.jpg	2	-1	1	0	potpie_03s.jpg	0	0.0	0	409.730554669019	409.780533421028	0.0499787520093378	84488
84.588	50	610	0	0	bone	161	301	1	stimuli\bone\bone_12s.jpg	11	-1	1	0	bone_12s.jpg	0	0.0	0	409.83056727398105	409.880544563115	0.0499772891344037	84588
84.688	50	611	0	0	watermelon	1793	302	1	stimuli\watermelon\watermelon_12s.jpg	11	-1	1	0	watermelon_12s.jpg	0	0.0	0	409.930556717038	409.980534249975	0.0499775329371914	84688
84.788	50	612	0	0	rhubarb	1307	303	1	stimuli\rhubarb\rhubarb_07n.jpg	6	-1	1	0	rhubarb_07n.jpg	0	0.0	0	410.03057224769094	410.08055343778705	0.0499811900954228	84788
84.888	50	613	0	0	mattress	985	304	1	stimuli\mattress\mattress_10s.jpg	9	-1	1	0	mattress_10s.jpg	0	0.0	0	410.130577294563	410.18054507512704	0.0499677805637475	84888
84.988	50	614	0	0	gearshift	668	305	1	stimuli\gearshift\gearshift_04n.jpg	3	-1	1	0	gearshift_04n.jpg	0	0.0	0	410.230567469029	410.28055548580596	0.0499880167772062	84988
85.088	50	615	0	0	nightshirt	1058	306	1	stimuli\nightshirt\nightshirt_12s.jpg	11	-1	1	0	nightshirt_12s.jpg	0	0.0	0	410.33058007399103	410.380558825971	0.0499787519802339	85088
85.188	50	616	0	0	sailboat	1347	307	1	stimuli\sailboat\sailboat_04s.jpg	3	-1	1	0	sailboat_04s.jpg	0	0.0	0	410.43058414559306	410.480548269028	0.049964123434620006	85188
