onset	duration	eventnumber	blocksequencenumber	isteststim	object	objectnumber	presentationnumber	sequencenumber	stim	stimnumber	teststimnumber	withinsequencenumber	istarget	stimname	response	rt	correct	time_stimon	time_stimoff	stimdur	sample
6.662	50	0	0	0	hip	780	0	0	stimuli\hip\hip_04s.jpg	3	-1	0	0	hip_04s.jpg	0	0.0	0	97.2825071808184	97.3324973918498	0.0499902110313997	6662
6.762	50	1	0	0	glove	680	1	0	stimuli\glove\glove_08s.jpg	7	-1	0	0	glove_08s.jpg	0	0.0	0	97.38252685626499	97.4324907358969	0.0499638796318322	6762
6.862	50	2	0	0	dandelion	472	2	0	stimuli\dandelion\dandelion_11s.jpg	10	-1	0	0	dandelion_11s.jpg	0	0.0	0	97.4825202001957	97.5324913940858	0.0499711938900873	6862
6.962	50	3	0	0	christmas_card	340	3	0	stimuli\christmas_card\christmas_card_12s.jpg	11	-1	0	0	christmas_card_12s.jpg	0	0.0	0	97.5825193956262	97.63249912287571	0.0499797272495925	6962
7.062	50	4	0	0	yo-yo	1847	4	0	stimuli\yo-yo\yo-yo_12s.jpg	11	-1	0	0	yo-yo_12s.jpg	0	0.0	0	97.6825315130409	97.7325109964004	0.0499794833594933	7062
7.162	50	5	0	0	honeycomb	789	5	0	stimuli\honeycomb\honeycomb_12s.jpg	11	-1	0	0	honeycomb_12s.jpg	0	0.0	0	97.7825353407534	97.8329500241671	0.0504146834136918	7162
7.262	50	6	0	0	pinecone	1183	6	0	stimuli\pinecone\pinecone_11s.jpg	10	-1	0	0	pinecone_11s.jpg	0	0.0	0	97.8825350238476	97.9324976843782	0.0499626605305821	7262
7.362	50	7	0	0	workbench	1835	7	0	stimuli\workbench\workbench_07s.jpg	6	-1	0	0	workbench_07s.jpg	0	0.0	0	97.9825393392239	98.032512239879	0.0499729006551206	7362
7.462	50	8	0	0	sheath	1413	8	0	stimuli\sheath\sheath_04s.jpg	3	-1	0	0	sheath_04s.jpg	0	0.0	0	98.0825339023722	98.1325016828487	0.049967780476436	7462
7.562	50	9	0	0	ferry	580	9	0	stimuli\ferry\ferry_10s.jpg	9	-1	0	0	ferry_10s.jpg	0	0.0	0	98.1825343167875	98.2325174573343	0.0499831405468285	7562
7.662	50	10	0	0	peanut_butter	1132	10	0	stimuli\peanut_butter\peanut_butter_11s.jpg	10	-1	0	0	peanut_butter_11s.jpg	0	0.0	0	98.28254789696079	98.33252445468679	0.0499765577260405	7662
7.762	50	11	0	0	eyedropper	566	11	0	stimuli\eyedropper\eyedropper_11s.jpg	10	-1	0	0	eyedropper_11s.jpg	0	0.0	0	98.3825534314383	98.4325414482737	0.0499880168354139	7762
7.862	50	12	0	0	hole	785	12	0	stimuli\hole\hole_12s.jpg	11	-1	0	0	hole_12s.jpg	0	0.0	0	98.4825404364383	98.53253064746971	0.0499902110313997	7862
7.962	50	13	0	0	undershirt	1744	13	0	stimuli\undershirt\undershirt_05s.jpg	4	-1	0	0	undershirt_05s.jpg	0	0.0	0	98.58254499570471	98.63253130577499	0.0499863100703806	7962
8.062	50	14	0	0	souffle	1498	14	0	stimuli\souffle\souffle_11s.jpg	10	-1	0	0	souffle_11s.jpg	0	0.0	0	98.68254443490879	98.7325346459402	0.0499902110313997	8062
8.162	50	15	0	0	stove1	1563	15	0	stimuli\stove1\stove1_09s.jpg	8	-1	0	0	stove1_09s.jpg	0	0.0	0	98.78255972173059	98.832526770886	0.0499670491553843	8162
8.262	50	16	0	0	pine_needle	1180	16	0	stimuli\pine_needle\pine_needle_12s.jpg	11	-1	0	0	pine_needle_12s.jpg	0	0.0	0	98.88255916093479	98.9325264539802	0.0499672930454835	8262
8.362	50	17	0	0	ambulance	19	17	0	stimuli\ambulance\ambulance_04s.jpg	3	-1	0	0	ambulance_04s.jpg	0	0.0	0	98.9825646954123	99.0325427160133	0.0499780206009746	8362
8.462	50	18	0	0	swing_set	1599	18	0	stimuli\swing_set\swing_set_12s.jpg	11	-1	0	0	swing_set_12s.jpg	0	0.0	0	99.082565109944	99.1325355723966	0.0499704624526203	8462
8.562	50	19	0	0	doorknocker	510	19	0	stimuli\doorknocker\doorknocker_09s.jpg	8	-1	0	0	doorknocker_09s.jpg	0	0.0	0	99.18257308250759	99.2325484211324	0.0499753386247903	8562
8.662	50	20	0	0	sandbox	1354	20	0	stimuli\sandbox\sandbox_05s.jpg	4	-1	0	0	sandbox_05s.jpg	0	0.0	0	99.28257203416429	99.3325505423127	0.0499785081483424	8662
8.762	50	21	0	0	trough	1718	21	0	stimuli\trough\trough_11s.jpg	10	-1	0	0	trough_11s.jpg	0	0.0	0	99.382574642892	99.43255461391529	0.0499799710232764	8762
8.862	50	22	0	0	armor	37	22	0	stimuli\armor\armor_03s.jpg	2	-1	0	0	armor_03s.jpg	0	0.0	0	99.4825801773695	99.5325501522748	0.0499699749052525	8862
8.962	50	23	0	0	laser_pointer	899	23	0	stimuli\laser_pointer\laser_pointer_07s.jpg	6	-1	0	0	laser_pointer_07s.jpg	0	0.0	0	99.58257937280001	99.632559831487	0.0499804586870596	8962
9.062	50	24	0	0	chess_piece	317	24	0	stimuli\chess_piece\chess_piece_03s.jpg	2	-1	0	0	chess_piece_03s.jpg	0	0.0	0	99.68258271296509	99.73254878690929	0.0499660739442334	9062
9.162	50	25	0	0	chaps	306	25	0	stimuli\chaps\chaps_12s.jpg	11	-1	0	0	chaps_12s.jpg	0	0.0	0	99.7825867845677	99.83255334617571	0.0499665616080165	9162
9.262	50	26	0	0	snowboard	1481	26	0	stimuli\snowboard\snowboard_11s.jpg	10	-1	0	0	snowboard_11s.jpg	0	0.0	0	99.8825908561703	99.9325688767713	0.0499780206009746	9262
9.362	50	27	0	0	gallows	653	27	0	stimuli\gallows\gallows_01b.jpg	0	-1	0	0	gallows_01b.jpg	0	0.0	0	99.98259273357691	100.032559295068	0.0499665614916012	9362
9.462	50	28	0	0	cigar	343	28	0	stimuli\cigar\cigar_09n.jpg	8	-1	0	0	cigar_09n.jpg	0	0.0	0	100.082593391882	100.132572143804	0.0499787519220263	9462
9.562	50	29	0	0	duct	527	29	0	stimuli\duct\duct_01b.jpg	0	-1	0	0	duct_01b.jpg	0	0.0	0	100.182595756836	100.23257450875799	0.0499787519220263	9562
9.662	50	30	0	0	rug	1340	30	0	stimuli\rug\rug_04s.jpg	3	-1	0	0	rug_04s.jpg	0	0.0	0	100.282601047424	100.332577361376	0.0499763139523566	9662
9.762	50	31	0	0	sheet	1415	31	0	stimuli\sheet\sheet_12s.jpg	11	-1	0	0	sheet_12s.jpg	0	0.0	0	100.38260073051799	100.43258021387699	0.0499794833594933	9762
9.862	50	32	0	0	radar	1271	32	0	stimuli\radar\radar_08s.jpg	7	-1	0	0	radar_08s.jpg	0	0.0	0	100.482605777332	100.532584773144	0.0499789958121255	9862
9.962	50	33	0	0	plaster_cast	1195	33	0	stimuli\plaster_cast\plaster_cast_01b.jpg	0	-1	0	0	plaster_cast_01b.jpg	0	0.0	0	100.58260814228599	100.63258567522301	0.0499775329371914	9962
10.062	50	34	0	0	berry	121	34	0	stimuli\berry\berry_05s.jpg	4	-1	0	0	berry_05s.jpg	0	0.0	0	100.682608556817	100.732592185028	0.0499836282106116	10062
10.162	50	35	0	0	camel	245	35	0	stimuli\camel\camel_03s.jpg	2	-1	0	0	camel_03s.jpg	0	0.0	0	100.782611409319	100.832590892795	0.0499794834759086	10162
10.262	50	36	0	0	t-shirt	1606	36	0	stimuli\t-shirt\t-shirt_02s.jpg	1	-1	0	0	t-shirt_02s.jpg	0	0.0	0	100.88261450571	100.932593257749	0.0499787520384416	10262
10.362	50	37	0	0	plum	1203	37	0	stimuli\plum\plum_04s.jpg	3	-1	0	0	plum_04s.jpg	0	0.0	0	100.982617114554	101.03259927989001	0.0499821653356776	10362
10.462	50	38	0	0	bandanna	67	38	0	stimuli\bandanna\bandanna_05s.jpg	4	-1	0	0	bandanna_05s.jpg	0	0.0	0	101.082619967056	101.132599694305	0.0499797272495925	10462
10.562	50	39	0	0	lab_coat	885	39	0	stimuli\lab_coat\lab_coat_04s.jpg	3	-1	0	0	lab_coat_04s.jpg	0	0.0	0	101.182621113025	101.232603765908	0.0499826528830454	10562
10.662	50	40	0	0	wall	1775	40	0	stimuli\wall\wall_09s.jpg	8	-1	0	0	wall_09s.jpg	0	0.0	0	101.282625184627	101.33259345276699	0.0499682681402192	10662
10.762	50	41	0	0	fern	577	41	0	stimuli\fern\fern_01b.jpg	0	-1	0	0	fern_01b.jpg	0	0.0	0	101.382611945737	101.43260435108101	0.0499924053438008	10762
10.862	50	42	0	0	trunk	1722	42	0	stimuli\trunk\trunk_04s.jpg	3	-1	0	0	trunk_04s.jpg	0	0.0	0	101.482626013574	101.53260183986299	0.0499758262885734	10862
10.962	50	43	0	0	spam	1504	43	0	stimuli\spam\spam_08s.jpg	7	-1	0	0	spam_08s.jpg	0	0.0	0	101.582628134638	101.632595915231	0.0499677805928513	10962
11.062	50	44	0	0	croissant	442	44	0	stimuli\croissant\croissant_05s.jpg	4	-1	0	0	croissant_05s.jpg	0	0.0	0	101.682632206357	101.732598036411	0.0499658300541341	11062
11.162	50	45	0	0	blowtorch	148	45	0	stimuli\blowtorch\blowtorch_07s.jpg	6	-1	0	0	blowtorch_07s.jpg	0	0.0	0	101.78262311220199	101.832613079459	0.0499899672577158	11162
11.262	50	46	0	0	soap	1487	46	0	stimuli\soap\soap_09s.jpg	8	-1	0	0	soap_09s.jpg	0	0.0	0	101.88263596093701	101.932603253983	0.0499672930454835	11262
11.362	50	47	0	0	hairpin	737	47	0	stimuli\hairpin\hairpin_02s.jpg	1	-1	0	0	hairpin_02s.jpg	0	0.0	0	101.982630280196	102.03261732170401	0.0499870415078476	11362
11.462	50	48	0	0	soup	1499	48	0	stimuli\soup\soup_12s.jpg	11	-1	0	0	soup_12s.jpg	0	0.0	0	102.08264410425899	102.13262212474399	0.0499780204845592	11462
11.562	50	49	0	0	margarita	973	49	0	stimuli\margarita\margarita_10s.jpg	9	-1	0	0	margarita_10s.jpg	0	0.0	0	102.182645006338	102.23262546502501	0.0499804586870596	11562
11.662	50	50	0	0	candy_bar	256	50	0	stimuli\candy_bar\candy_bar_12s.jpg	11	-1	0	0	candy_bar_12s.jpg	0	0.0	0	102.28265005315201	102.33262831752701	0.0499782643746585	11662
11.762	50	51	0	0	pedometer	1137	51	0	stimuli\pedometer\pedometer_08s.jpg	7	-1	0	0	pedometer_08s.jpg	0	0.0	0	102.382653393317	102.432630682481	0.0499772891635075	11762
11.862	50	52	0	0	scallion	1372	52	0	stimuli\scallion\scallion_10s.jpg	9	-1	0	0	scallion_10s.jpg	0	0.0	0	102.48264112975401	102.53262987791099	0.0499887481564656	11862
11.962	50	53	0	0	wolf	1831	53	0	stimuli\wolf\wolf_12n.jpg	11	-1	0	0	wolf_12n.jpg	0	0.0	0	102.582654953701	102.632636143826	0.0499811901245266	11962
12.062	50	54	0	0	candle	253	54	0	stimuli\candle\candle_07n.jpg	6	-1	0	0	candle_07n.jpg	0	0.0	0	102.682662194828	102.732627537334	0.0499653425067663	12062
12.162	50	55	0	0	brooch	202	55	0	stimuli\brooch\brooch_03s.jpg	2	-1	0	0	brooch_03s.jpg	0	0.0	0	102.782650662703	102.83264038607	0.0499897233676165	12162
12.262	50	56	0	0	cement_mixer	294	56	0	stimuli\cement_mixer\cement_mixer_02s.jpg	1	-1	0	0	cement_mixer_02s.jpg	0	0.0	0	102.88265570951599	102.932631535805	0.0499758262885734	12262
12.362	50	57	0	0	shaving_cream	1410	57	0	stimuli\shaving_cream\shaving_cream_03s.jpg	2	-1	0	0	shaving_cream_03s.jpg	0	0.0	0	102.982653198298	103.032635607407	0.0499824091093615	12362
12.462	50	58	0	0	cloud	364	58	0	stimuli\cloud\cloud_08s.jpg	7	-1	0	0	cloud_08s.jpg	0	0.0	0	103.082667753682	103.132645042846	0.0499772891635075	12462
12.562	50	59	0	0	bedpan	109	59	0	stimuli\bedpan\bedpan_09s.jpg	8	-1	0	0	bedpan_09s.jpg	0	0.0	0	103.18267231294901	103.232648139237	0.0499758262885734	12562
12.662	50	60	0	0	eel	545	60	0	stimuli\eel\eel_04s.jpg	3	-1	0	0	eel_04s.jpg	0	0.0	0	103.282677359879	103.332654648926	0.0499772890470922	12662
12.762	50	61	0	0	fur_coat	650	61	0	stimuli\fur_coat\fur_coat_01b.jpg	0	-1	0	0	fur_coat_01b.jpg	0	0.0	0	103.382678993396	103.432657745318	0.0499787519220263	12762
12.862	50	62	0	0	cupcake	461	62	0	stimuli\cupcake\cupcake_03s.jpg	2	-1	0	0	cupcake_03s.jpg	0	0.0	0	103.48266794881799	103.53264621319201	0.0499782643746585	12862
12.962	50	63	0	0	rack2	1269	63	0	stimuli\rack2\rack2_12s.jpg	11	-1	0	0	rack2_12s.jpg	0	0.0	0	103.582688355586	103.63266003713899	0.0499716815538704	12962
13.062	50	64	0	0	badger	53	64	0	stimuli\badger\badger_01b.jpg	0	-1	0	0	badger_01b.jpg	0	0.0	0	103.682683406281	103.73266240209298	0.0499789958121255	13062
13.162	50	65	0	0	puck	1245	65	0	stimuli\puck\puck_01b.jpg	0	-1	0	0	puck_01b.jpg	0	0.0	0	103.78267675032801	103.83266622992201	0.0499894795939326	13162
13.262	50	66	0	0	yoke	1849	66	0	stimuli\yoke\yoke_12s.jpg	11	-1	0	0	yoke_12s.jpg	0	0.0	0	103.88268959906401	103.932657135767	0.0499675367027521	13262
13.362	50	67	0	0	cockatoo	372	67	0	stimuli\cockatoo\cockatoo_04s.jpg	3	-1	0	0	cockatoo_04s.jpg	0	0.0	0	103.982682211674	104.032660963596	0.0499787519220263	13362
13.462	50	68	0	0	lamb_chop	890	68	0	stimuli\lamb_chop\lamb_chop_06s.jpg	5	-1	0	0	lamb_chop_06s.jpg	0	0.0	0	104.08268725848801	104.132662841002	0.0499755825148895	13462
13.562	50	69	0	0	tea	1631	69	0	stimuli\tea\tea_04s.jpg	3	-1	0	0	tea_04s.jpg	0	0.0	0	104.18269279296499	104.23266423062901	0.0499714376637712	13562
13.662	50	70	0	0	turkey	1733	70	0	stimuli\turkey\turkey_01s.jpg	0	-1	0	0	turkey_01s.jpg	0	0.0	0	104.28269735223101	104.33267025277	0.0499729005387053	13662
13.762	50	71	0	0	bell_pepper	117	71	0	stimuli\bell_pepper\bell_pepper_02s.jpg	1	-1	0	0	bell_pepper_02s.jpg	0	0.0	0	104.382694109576	104.43267237395	0.0499782643746585	13762
13.862	50	72	0	0	floss	617	72	0	stimuli\floss\floss_12s.jpg	11	-1	0	0	floss_12s.jpg	0	0.0	0	104.482697693515	104.532673032256	0.0499753387412056	13862
13.962	50	73	0	0	ice_cream	818	73	0	stimuli\ice_cream\ice_cream_01b.jpg	0	-1	0	0	ice_cream_01b.jpg	0	0.0	0	104.582698108046	104.632676128531	0.0499780204845592	13962
14.062	50	74	0	0	chain	298	74	0	stimuli\chain\chain_03s.jpg	2	-1	0	0	chain_03s.jpg	0	0.0	0	104.682701204438	104.73267922492201	0.0499780204845592	14062
14.162	50	75	0	0	bulletproof_vest	218	75	0	stimuli\bulletproof_vest\bulletproof_vest_06s.jpg	5	-1	0	0	bulletproof_vest_06s.jpg	0	0.0	0	104.782703569392	104.83268207754	0.0499785081483424	14162
14.262	50	76	0	0	sawhorse	1367	76	0	stimuli\sawhorse\sawhorse_12s.jpg	11	-1	0	0	sawhorse_12s.jpg	0	0.0	0	104.882706421893	104.932682004408	0.0499755825148895	14262
14.362	50	77	0	0	brake	191	77	0	stimuli\brake\brake_08s.jpg	7	-1	0	0	brake_08s.jpg	0	0.0	0	104.98271171259701	105.032685344573	0.0499736319761723	14362
14.462	50	78	0	0	ironing_board	833	78	0	stimuli\ironing_board\ironing_board_12s.jpg	11	-1	0	0	ironing_board_12s.jpg	0	0.0	0	105.082714077551	105.132690391387	0.0499763138359413	14462
14.562	50	79	0	0	awning	44	79	0	stimuli\awning\awning_04s.jpg	3	-1	0	0	awning_04s.jpg	0	0.0	0	105.182714248192	105.232693487778	0.0499792395858094	14562
14.662	50	80	0	0	sarcophagus	1358	80	0	stimuli\sarcophagus\sarcophagus_06s.jpg	5	-1	0	0	sarcophagus_06s.jpg	0	0.0	0	105.282717344584	105.33269609662202	0.0499787520384416	14662
14.762	50	81	0	0	safety_pin	1344	81	0	stimuli\safety_pin\safety_pin_11s.jpg	10	-1	0	0	safety_pin_11s.jpg	0	0.0	0	105.38272019720199	105.432699924335	0.0499797271331772	14762
14.862	50	82	0	0	moccasin	1010	82	0	stimuli\moccasin\moccasin_03s.jpg	2	-1	0	0	moccasin_03s.jpg	0	0.0	0	105.482722074492	105.532701070304	0.0499789958121255	14862
14.962	50	83	0	0	vial	1760	83	0	stimuli\vial\vial_05s.jpg	4	-1	0	0	vial_05s.jpg	0	0.0	0	105.582724195672	105.632703191484	0.0499789958121255	14962
15.062	50	84	0	0	hovercraft	808	84	0	stimuli\hovercraft\hovercraft_10s.jpg	9	-1	0	0	hovercraft_10s.jpg	0	0.0	0	105.68272899871201	105.73270848207198	0.0499794833594933	15062
15.162	50	85	0	0	dalmatian	471	85	0	stimuli\dalmatian\dalmatian_07s.jpg	6	-1	0	0	dalmatian_07s.jpg	0	0.0	0	105.782733557862	105.83271328511199	0.0499797272495925	15162
15.262	50	86	0	0	walker2	1774	86	0	stimuli\walker2\walker2_06s.jpg	5	-1	0	0	walker2_06s.jpg	0	0.0	0	105.882735435269	105.932712480542	0.0499770452734083	15262
15.362	50	87	0	0	bow2	175	87	0	stimuli\bow2\bow2_09s.jpg	8	-1	0	0	bow2_09s.jpg	0	0.0	0	105.982736337348	106.03271216363599	0.0499758262885734	15362
15.462	50	88	0	0	carriage	276	88	0	stimuli\carriage\carriage_01b.jpg	0	-1	0	0	carriage_01b.jpg	0	0.0	0	106.082740896614	106.132713065716	0.0499721691012383	15462
15.562	50	89	0	0	bolt	159	89	0	stimuli\bolt\bolt_01b.jpg	0	-1	0	0	bolt_01b.jpg	0	0.0	0	106.182742042467	106.23271811252899	0.0499760700622573	15562
15.662	50	90	0	0	llama	938	90	0	stimuli\llama\llama_01b.jpg	0	-1	0	0	llama_01b.jpg	0	0.0	0	106.282756597851	106.332723647007	0.0499670491553843	15662
15.762	50	91	0	0	soda_fountain	1491	91	0	stimuli\soda_fountain\soda_fountain_06s.jpg	5	-1	0	0	soda_fountain_06s.jpg	0	0.0	0	106.38274726003901	106.432728450047	0.0499811900081113	15762
15.862	50	92	0	0	icepick	822	92	0	stimuli\icepick\icepick_08s.jpg	7	-1	0	0	icepick_08s.jpg	0	0.0	0	106.482748162118	106.532726426492	0.0499782643746585	15862
15.962	50	93	0	0	keyhole	871	93	0	stimuli\keyhole\keyhole_04s.jpg	3	-1	0	0	keyhole_04s.jpg	0	0.0	0	106.58275223372	106.63273147330601	0.0499792395858094	15962
16.062	50	94	0	0	overalls	1090	94	0	stimuli\overalls\overalls_12s.jpg	11	-1	0	0	overalls_12s.jpg	0	0.0	0	106.68275630532301	106.73273383826	0.0499775329371914	16062
16.162	50	95	0	0	sprouts	1524	95	0	stimuli\sprouts\sprouts_09s.jpg	8	-1	0	0	sprouts_09s.jpg	0	0.0	0	106.782755988417	106.832736447104	0.0499804586870596	16162
16.262	50	96	0	0	fast_food	572	96	0	stimuli\fast_food\fast_food_05s.jpg	4	-1	0	0	fast_food_05s.jpg	0	0.0	0	106.882758840919	106.932750758715	0.049991917796433	16262
16.362	50	97	0	0	panda	1105	97	0	stimuli\panda\panda_07s.jpg	6	-1	0	0	panda_07s.jpg	0	0.0	0	106.98276169353599	107.032741420786	0.0499797272495925	16362
16.462	50	98	0	0	baklava	57	98	0	stimuli\baklava\baklava_07s.jpg	6	-1	0	1	baklava_07s.jpg	0	0.0	0	107.082765033701	107.132744760951	0.0499797272495925	16462
16.562	50	99	0	0	appetizer	29	99	0	stimuli\appetizer\appetizer_06s.jpg	5	-1	0	0	appetizer_06s.jpg	0	0.0	0	107.18276715488199	107.232745175483	0.0499780206009746	16562
16.662	50	100	0	0	ruler	1341	100	0	stimuli\ruler\ruler_03s.jpg	2	-1	0	0	ruler_03s.jpg	0	0.0	0	107.28277220169501	107.332749247085	0.0499770453898236	16662
16.762	50	101	0	0	lumber	949	101	0	stimuli\lumber\lumber_03s.jpg	2	-1	0	0	lumber_03s.jpg	0	0.0	0	107.382772860001	107.432751368149	0.0499785081483424	16762
16.862	50	102	0	0	garter	659	102	0	stimuli\garter\garter_12s.jpg	11	-1	0	0	garter_12s.jpg	0	0.0	0	107.482775224955	107.532751782681	0.0499765577260405	16862
16.962	50	103	0	0	clothes	361	103	0	stimuli\clothes\clothes_12s.jpg	11	-1	0	0	clothes_12s.jpg	0	0.0	0	107.582779052784	107.63275512284599	0.0499760700622573	16962
17.062	50	104	0	0	cat	284	104	0	stimuli\cat\cat_02s.jpg	1	-1	0	0	cat_02s.jpg	0	0.0	0	107.682781417738	107.732759438339	0.0499780206009746	17062
17.162	50	105	0	0	thumb	1653	105	0	stimuli\thumb\thumb_08s.jpg	7	-1	0	0	thumb_08s.jpg	0	0.0	0	107.782787195989	107.832763022278	0.0499758262885734	17162
17.262	50	106	0	0	bison	134	106	0	stimuli\bison\bison_11s.jpg	10	-1	0	0	bison_11s.jpg	0	0.0	0	107.882788341958	107.932766362443	0.0499780204845592	17262
17.362	50	107	0	0	sling	1466	107	0	stimuli\sling\sling_06s.jpg	5	-1	0	0	sling_06s.jpg	0	0.0	0	107.98278778116199	108.032767752185	0.0499799710232764	17362
17.462	50	108	0	0	basil	81	108	0	stimuli\basil\basil_07s.jpg	6	-1	0	0	basil_07s.jpg	0	0.0	0	108.082794778515	108.132772311452	0.0499775329371914	17462
17.562	50	109	0	0	snack	1475	109	0	stimuli\snack\snack_12s.jpg	11	-1	0	0	snack_12s.jpg	0	0.0	0	108.182793242508	108.232773213531	0.0499799710232764	17562
17.662	50	110	0	0	seahorse	1396	110	0	stimuli\seahorse\seahorse_10s.jpg	9	-1	0	0	seahorse_10s.jpg	0	0.0	0	108.282796095009	108.33278508705601	0.0499889920465648	17662
17.762	50	111	0	0	staple_gun	1538	111	0	stimuli\staple_gun\staple_gun_08s.jpg	7	-1	0	0	staple_gun_08s.jpg	0	0.0	0	108.38280162948601	108.432779162424	0.0499775329371914	17762
17.862	50	112	0	0	trophy	1717	112	0	stimuli\trophy\trophy_05s.jpg	4	-1	0	0	trophy_05s.jpg	0	0.0	0	108.482804482104	108.532782746479	0.0499782643746585	17862
17.962	50	113	0	0	buoy	223	113	0	stimuli\buoy\buoy_09s.jpg	8	-1	0	0	buoy_09s.jpg	0	0.0	0	108.582803677535	108.632788280956	0.0499846034217626	17962
18.062	50	114	0	0	sandal	1352	114	0	stimuli\sandal\sandal_02s.jpg	1	-1	0	0	sandal_02s.jpg	0	0.0	0	108.682808968239	108.732786257286	0.0499772890470922	18062
18.162	50	115	0	0	silicone	1444	115	0	stimuli\silicone\silicone_12s.jpg	11	-1	0	0	silicone_12s.jpg	0	0.0	0	108.78280987031799	108.83278715948099	0.0499772891635075	18162
18.262	50	116	0	0	cannonball	261	116	0	stimuli\cannonball\cannonball_06s.jpg	5	-1	0	0	cannonball_06s.jpg	0	0.0	0	108.88281223527201	108.93279123108401	0.0499789958121255	18262
18.362	50	117	0	0	jersey	846	117	0	stimuli\jersey\jersey_09s.jpg	8	-1	0	0	jersey_09s.jpg	0	0.0	0	108.98281606309999	109.032792133163	0.0499760700622573	18362
18.462	50	118	0	0	rust	1342	118	0	stimuli\rust\rust_05s.jpg	4	-1	0	0	rust_05s.jpg	0	0.0	0	109.08281794039101	109.132795473328	0.0499775329371914	18462
18.562	50	119	0	0	ski_boots	1453	119	0	stimuli\ski_boots\ski_boots_02s.jpg	1	-1	0	0	ski_boots_02s.jpg	0	0.0	0	109.182821036782	109.232797838282	0.0499768014997244	18562
18.662	50	120	0	0	stamp1	1535	120	0	stimuli\stamp1\stamp1_03s.jpg	2	-1	0	0	stamp1_03s.jpg	0	0.0	0	109.282824133174	109.33280629850901	0.0499821653356776	18662
18.762	50	121	0	0	bow1	174	121	0	stimuli\bow1\bow1_04s.jpg	3	-1	0	0	bow1_04s.jpg	0	0.0	0	109.382826254237	109.432803299627	0.0499770453898236	18762
18.862	50	122	0	0	puddle	1247	122	0	stimuli\puddle\puddle_11s.jpg	10	-1	0	0	puddle_11s.jpg	0	0.0	0	109.482827887754	109.532808102667	0.0499802149133757	18862
18.962	50	123	0	0	origami	1083	123	0	stimuli\origami\origami_01b.jpg	0	-1	0	0	origami_01b.jpg	0	0.0	0	109.582833178458	109.632811686606	0.0499785081483424	18962
19.062	50	124	0	0	juicer2	856	124	0	stimuli\juicer2\juicer2_10s.jpg	9	-1	0	0	juicer2_10s.jpg	0	0.0	0	109.68284041958401	109.732813564013	0.0499731444288045	19062
19.162	50	125	0	0	potato	1231	125	0	stimuli\potato\potato_09s.jpg	8	-1	0	0	potato_09s.jpg	0	0.0	0	109.78283839603	109.83281519752899	0.0499768014997244	19162
19.262	50	126	0	0	broom	203	126	0	stimuli\broom\broom_11s.jpg	10	-1	0	0	broom_11s.jpg	0	0.0	0	109.882841004757	109.93281829392099	0.0499772891635075	19262
19.362	50	127	0	0	dog	495	127	0	stimuli\dog\dog_12s.jpg	11	-1	0	0	dog_12s.jpg	0	0.0	0	109.98284312593799	110.032824315946	0.0499811900081113	19362
19.462	50	128	0	0	crumb	451	128	0	stimuli\crumb\crumb_05s.jpg	4	-1	0	0	crumb_05s.jpg	0	0.0	0	110.08284768508699	110.13282594946199	0.0499782643746585	19462
19.562	50	129	0	0	lantern	895	129	0	stimuli\lantern\lantern_11s.jpg	10	-1	0	0	lantern_11s.jpg	0	0.0	0	110.18284809961901	110.232824413572	0.0499763139523566	19562
19.662	50	130	0	0	hamster	743	130	0	stimuli\hamster\hamster_09s.jpg	8	-1	0	0	hamster_09s.jpg	0	0.0	0	110.282849976909	110.332828485174	0.0499785082647577	19662
19.762	50	131	0	0	spacesuit	1502	131	0	stimuli\spacesuit\spacesuit_09s.jpg	8	-1	0	0	spacesuit_09s.jpg	0	0.0	0	110.38286843337099	110.432832313003	0.0499638796318322	19762
19.862	50	132	0	0	locker	941	132	0	stimuli\locker\locker_12s.jpg	11	-1	0	0	locker_12s.jpg	0	0.0	0	110.482858607778	110.532835409278	0.0499768014997244	19862
19.962	50	133	0	0	scuba	1392	133	0	stimuli\scuba\scuba_04s.jpg	3	-1	0	0	scuba_04s.jpg	0	0.0	0	110.58285902231	110.632842406631	0.0499833843205124	19962
20.062	50	134	0	0	snorkel	1478	134	0	stimuli\snorkel\snorkel_08s.jpg	7	-1	0	0	snorkel_08s.jpg	0	0.0	0	110.682862118701	110.732840383076	0.0499782643746585	20062
20.162	50	135	0	0	jar	840	135	0	stimuli\jar\jar_03s.jpg	2	-1	0	0	jar_03s.jpg	0	0.0	0	110.782863508328	110.832840797491	0.0499772891635075	20162
20.262	50	136	0	0	taffy	1615	136	0	stimuli\taffy\taffy_01b.jpg	0	-1	0	0	taffy_01b.jpg	0	0.0	0	110.88286831136801	110.93284706340599	0.0499787520384416	20262
20.362	50	137	0	0	license_plate	921	137	0	stimuli\license_plate\license_plate_03s.jpg	2	-1	0	0	license_plate_03s.jpg	0	0.0	0	110.982867994462	111.03284674650101	0.0499787520384416	20362
20.462	50	138	0	0	boot	169	138	0	stimuli\boot\boot_08s.jpg	7	-1	0	0	boot_08s.jpg	0	0.0	0	111.082871822291	111.132851305651	0.0499794833594933	20462
20.562	50	139	0	0	scaffold	1369	139	0	stimuli\scaffold\scaffold_08s.jpg	7	-1	0	0	scaffold_08s.jpg	0	0.0	0	111.182875162456	111.23285245161999	0.0499772891635075	20562
20.662	50	140	0	0	eye_patch	565	140	0	stimuli\eye_patch\eye_patch_05s.jpg	4	-1	0	0	eye_patch_05s.jpg	0	0.0	0	111.282879234059	111.332855060347	0.0499758262885734	20662
20.762	50	141	0	0	pantyhose	1110	141	0	stimuli\pantyhose\pantyhose_09s.jpg	8	-1	0	0	pantyhose_09s.jpg	0	0.0	0	111.382896959083	111.432858400512	0.0499614414293319	20762
20.862	50	142	0	0	crate	433	142	0	stimuli\crate\crate_02s.jpg	1	-1	0	1	crate_02s.jpg	0	0.0	0	111.482884451631	111.532862472231	0.0499780206009746	20862
20.962	50	143	0	0	sewage	1405	143	0	stimuli\sewage\sewage_01b.jpg	0	-1	0	0	sewage_01b.jpg	0	0.0	0	111.582886085147	111.632865324733	0.0499792395858094	20962
21.062	50	144	0	0	doorknob	509	144	0	stimuli\doorknob\doorknob_12s.jpg	11	-1	0	0	doorknob_12s.jpg	0	0.0	0	111.682888206327	111.73286598303801	0.0499777767108753	21062
21.162	50	145	0	0	eyeliner	567	145	0	stimuli\eyeliner\eyeliner_03s.jpg	2	-1	0	0	eyeliner_03s.jpg	1	0.341907706810161	1	111.782889108406	111.83287005464099	0.0499809462344274	21162
21.262	50	146	0	0	heater	772	146	0	stimuli\heater\heater_12s.jpg	11	-1	0	0	heater_12s.jpg	0	0.0	0	111.88289464288401	111.932872175821	0.0499775329371914	21262
21.362	50	147	0	0	sickle	1441	147	0	stimuli\sickle\sickle_07s.jpg	6	-1	0	0	sickle_07s.jpg	0	0.0	0	111.982894082088	112.032874053111	0.0499799710232764	21362
21.462	50	148	0	0	gear	667	148	0	stimuli\gear\gear_11s.jpg	10	-1	0	0	gear_11s.jpg	0	0.0	0	112.082898885128	112.13288226956499	0.0499833844369277	21462
21.562	50	149	0	0	thumbtack	1654	149	0	stimuli\thumbtack\thumbtack_02s.jpg	1	-1	0	0	thumbtack_02s.jpg	0	0.0	0	112.18290198152	112.232880002121	0.0499780206009746	21562
21.662	50	150	0	0	raft	1275	150	0	stimuli\raft\raft_09s.jpg	8	-1	0	0	raft_09s.jpg	0	0.0	0	112.282905077911	112.332883342286	0.0499782643746585	21662
21.762	50	151	0	0	highchair	777	151	0	stimuli\highchair\highchair_04s.jpg	3	-1	0	0	highchair_04s.jpg	0	0.0	0	112.382906223764	112.432884244365	0.0499780206009746	21762
21.862	50	152	0	0	taco	1613	152	0	stimuli\taco\taco_03s.jpg	2	-1	0	0	taco_03s.jpg	0	0.0	0	112.48290907638099	112.53288612165501	0.0499770452734083	21862
21.962	50	153	0	0	fishing_pole	603	153	0	stimuli\fishing_pole\fishing_pole_01b.jpg	0	-1	0	0	fishing_pole_01b.jpg	0	0.0	0	112.582909978461	112.632888974273	0.0499789958121255	21962
22.062	50	154	0	0	ukulele	1742	154	0	stimuli\ukulele\ukulele_01b.jpg	0	-1	0	0	ukulele_01b.jpg	0	0.0	0	112.682913562516	112.73289353353901	0.0499799710232764	22062
22.162	50	155	0	0	lava	903	155	0	stimuli\lava\lava_07s.jpg	6	-1	0	0	lava_07s.jpg	0	0.0	0	112.78291568358	112.832899068017	0.0499833844369277	22162
22.262	50	156	0	0	wheat	1805	156	0	stimuli\wheat\wheat_02s.jpg	1	-1	0	0	wheat_02s.jpg	0	0.0	0	112.882921461831	112.932898507221	0.0499770453898236	22262
22.362	50	157	0	0	book	165	157	0	stimuli\book\book_01b.jpg	0	-1	0	0	book_01b.jpg	0	0.0	0	112.982921876363	113.032899896963	0.0499780206009746	22362
22.462	50	158	0	0	credit_card	438	158	0	stimuli\credit_card\credit_card_09s.jpg	8	-1	0	0	credit_card_09s.jpg	0	0.0	0	113.082927167066	113.132905431441	0.0499782643746585	22462
22.562	50	159	0	0	peacock	1130	159	0	stimuli\peacock\peacock_03s.jpg	2	-1	0	0	peacock_03s.jpg	0	0.0	0	113.182930263458	113.232905114419	0.0499748509610072	22562
22.662	50	160	0	0	chisel	336	160	0	stimuli\chisel\chisel_06s.jpg	5	-1	0	0	chisel_06s.jpg	0	0.0	0	113.282930921647	113.33292478986601	0.0499938682187349	22662
22.762	50	161	0	0	cream_cheese	437	161	0	stimuli\cream_cheese\cream_cheese_07s.jpg	6	-1	0	0	cream_cheese_07s.jpg	0	0.0	0	113.382915732334	113.43291886535	0.0500031330157071	22762
22.862	50	162	0	0	banana	63	162	0	stimuli\banana\banana_09s.jpg	8	-1	0	0	banana_09s.jpg	0	0.0	0	113.482938089641	113.53291415981899	0.0499760701786727	22862
22.962	50	163	0	0	water_heater	1791	163	0	stimuli\water_heater\water_heater_11s.jpg	10	-1	0	0	water_heater_11s.jpg	0	0.0	0	113.58293996704701	113.632916768547	0.0499768014997244	22962
23.062	50	164	0	0	coat	369	164	0	stimuli\coat\coat_10s.jpg	9	-1	0	0	coat_10s.jpg	0	0.0	0	113.682942088228	113.732919864939	0.0499777767108753	23062
23.162	50	165	0	0	mailbox	960	165	0	stimuli\mailbox\mailbox_02s.jpg	1	-1	0	0	mailbox_02s.jpg	0	0.0	0	113.78294615983	113.83292320510401	0.0499770452734083	23162
23.262	50	166	0	0	sausage	1365	166	0	stimuli\sausage\sausage_03s.jpg	2	-1	0	0	sausage_03s.jpg	0	0.0	0	113.88295047520701	113.932924107183	0.0499736319761723	23262
23.362	50	167	0	0	diskette	493	167	0	stimuli\diskette\diskette_11s.jpg	10	-1	0	0	diskette_11s.jpg	0	0.0	0	113.982951133512	114.032928666449	0.0499775329371914	23362
23.462	50	168	0	0	birdhouse	131	168	0	stimuli\birdhouse\birdhouse_06s.jpg	5	-1	0	1	birdhouse_06s.jpg	0	0.0	0	114.082951791817	114.132933469489	0.0499816776718944	23462
23.562	50	169	0	0	diaper	485	169	0	stimuli\diaper\diaper_05s.jpg	4	-1	0	0	diaper_05s.jpg	0	0.0	0	114.18295586341999	114.232934859232	0.0499789958121255	23562
23.662	50	170	0	0	parrot	1121	170	0	stimuli\parrot\parrot_12s.jpg	11	-1	0	0	parrot_12s.jpg	0	0.0	0	114.28295798459999	114.332933810889	0.0499758262885734	23662
23.762	50	171	0	0	phone	1161	171	0	stimuli\phone\phone_06s.jpg	5	-1	0	0	phone_06s.jpg	1	0.34194915450643704	1	114.38297717238301	114.43293958913999	0.0499624167568982	23762
23.862	50	172	0	0	trapdoor	1703	172	0	stimuli\trapdoor\trapdoor_11s.jpg	10	-1	0	0	trapdoor_11s.jpg	0	0.0	0	114.482964177267	114.53294171032	0.0499775330536067	23862
23.962	50	173	0	0	wire_cutters	1829	173	0	stimuli\wire_cutters\wire_cutters_12s.jpg	11	-1	0	0	wire_cutters_12s.jpg	0	0.0	0	114.58296556701	114.632943343837	0.0499777768272907	23962
24.062	50	174	0	0	mixer	1009	174	0	stimuli\mixer\mixer_10s.jpg	9	-1	0	0	mixer_10s.jpg	0	0.0	0	114.68297037004999	114.73295692401001	0.0499865539604798	24062
24.162	50	175	0	0	ginger	673	175	0	stimuli\ginger\ginger_08s.jpg	7	-1	0	0	ginger_08s.jpg	0	0.0	0	114.782970784581	114.832948073745	0.0499772891635075	24162
24.262	50	176	0	0	camper	249	176	0	stimuli\camper\camper_08s.jpg	7	-1	0	0	camper_08s.jpg	0	0.0	0	114.882971930434	114.932950438699	0.0499785082647577	24262
24.362	50	177	0	0	cutting_board	467	177	0	stimuli\cutting_board\cutting_board_02s.jpg	1	-1	0	0	cutting_board_02s.jpg	0	0.0	0	114.982977952575	115.032953778864	0.0499758262885734	24362
24.462	50	178	0	0	holster	786	178	0	stimuli\holster\holster_10s.jpg	9	-1	0	0	holster_10s.jpg	0	0.0	0	115.08298202417801	115.13295858190399	0.0499765577260405	24462
24.562	50	179	0	0	scorpion	1384	179	0	stimuli\scorpion\scorpion_02s.jpg	1	-1	0	0	scorpion_02s.jpg	0	0.0	0	115.182983413921	115.23295704589701	0.0499736319761723	24562
24.662	50	180	0	0	snake	1477	180	0	stimuli\snake\snake_03s.jpg	2	-1	0	0	snake_03s.jpg	0	0.0	0	115.282985047437	115.332973064156	0.0499880167189986	24662
24.762	50	181	0	0	calf2	242	181	0	stimuli\calf2\calf2_05s.jpg	4	-1	0	0	calf2_05s.jpg	0	0.0	0	115.382990825688	115.43296445766501	0.0499736319761723	24762
24.862	50	182	0	0	lemonade	915	182	0	stimuli\lemonade\lemonade_02s.jpg	1	-1	0	0	lemonade_02s.jpg	0	0.0	0	115.482987826806	115.532972186455	0.0499843596480787	24862
24.962	50	183	0	0	porcupine	1226	183	0	stimuli\porcupine\porcupine_05s.jpg	4	-1	0	0	porcupine_05s.jpg	0	0.0	0	115.582994336495	115.63296991901001	0.0499755825148895	24962
25.062	50	184	0	0	spinach	1515	184	0	stimuli\spinach\spinach_05s.jpg	4	-1	0	0	spinach_05s.jpg	0	0.0	0	115.683009379543	115.73297179629999	0.0499624167568982	25062
25.162	50	185	0	0	sled	1460	185	0	stimuli\sled\sled_05s.jpg	4	-1	0	0	sled_05s.jpg	0	0.0	0	115.782997115981	115.832975136582	0.0499780206009746	25162
25.262	50	186	0	0	computer_screen	395	186	0	stimuli\computer_screen\computer_screen_08s.jpg	7	-1	0	0	computer_screen_08s.jpg	0	0.0	0	115.88300630764601	115.932980427169	0.0499741195235401	25262
25.362	50	187	0	0	peanut	1131	187	0	stimuli\peanut\peanut_07s.jpg	6	-1	0	0	peanut_07s.jpg	0	0.0	0	115.983004040201	116.03298254834999	0.0499785081483424	25362
25.462	50	188	0	0	sunflower	1584	188	0	stimuli\sunflower\sunflower_06s.jpg	5	-1	0	0	sunflower_06s.jpg	0	0.0	0	116.083008843241	116.132985644741	0.0499768014997244	25462
25.562	50	189	0	0	mop	1019	189	0	stimuli\mop\mop_09s.jpg	8	-1	0	0	mop_09s.jpg	0	0.0	0	116.18300925765699	116.232984840171	0.0499755825148895	25562
25.662	50	190	0	0	hot_tub	804	190	0	stimuli\hot_tub\hot_tub_02s.jpg	1	-1	0	0	hot_tub_02s.jpg	0	0.0	0	116.28301015973601	116.33299037464899	0.0499802149133757	25662
25.762	50	191	0	0	gyro	730	191	0	stimuli\gyro\gyro_10s.jpg	9	-1	0	0	gyro_10s.jpg	0	0.0	0	116.383021545713	116.43299469002501	0.0499731443123892	25762
25.862	50	192	0	0	elephant	554	192	0	stimuli\elephant\elephant_12n.jpg	11	-1	0	0	elephant_12n.jpg	0	0.0	0	116.48301732773001	116.532994860783	0.0499775330536067	25862
25.962	50	193	0	0	gum	724	193	0	stimuli\gum\gum_03s.jpg	2	-1	0	0	gum_03s.jpg	0	0.0	0	116.583019205136	116.632995762862	0.0499765577260405	25962
26.062	50	194	0	0	ballot_box	61	194	0	stimuli\ballot_box\ballot_box_06s.jpg	5	-1	0	0	ballot_box_06s.jpg	0	0.0	0	116.683023520513	116.733000809676	0.0499772891635075	26062
26.162	50	195	0	0	clove	365	195	0	stimuli\clove\clove_03s.jpg	2	-1	0	0	clove_03s.jpg	0	0.0	0	116.783030761639	116.833003906067	0.0499731444288045	26162
26.262	50	196	0	0	pocketknife	1207	196	0	stimuli\pocketknife\pocketknife_01b.jpg	0	-1	0	0	pocketknife_01b.jpg	0	0.0	0	116.883027275209	116.93300505191999	0.0499777767108753	26262
26.362	50	197	0	0	skeleton	1450	197	0	stimuli\skeleton\skeleton_10s.jpg	9	-1	0	0	skeleton_10s.jpg	0	0.0	0	116.98302793351499	117.033010342624	0.0499824091093615	26362
26.462	50	198	0	0	cheetah	315	198	0	stimuli\cheetah\cheetah_02s.jpg	1	-1	0	0	cheetah_02s.jpg	0	0.0	0	117.08303176134399	117.13301002571801	0.0499782643746585	26462
26.562	50	199	0	0	rhubarb	1307	199	0	stimuli\rhubarb\rhubarb_08s.jpg	7	-1	0	0	rhubarb_08s.jpg	0	0.0	0	117.18303534528201	117.233013853547	0.0499785082647577	26562
26.662	50	200	0	0	cheeseburger	313	200	0	stimuli\cheeseburger\cheeseburger_06s.jpg	5	-1	0	0	cheeseburger_06s.jpg	0	0.0	0	117.28303868544799	117.333021338447	0.0499826529994607	26662
26.762	50	201	0	0	napkin	1050	201	0	stimuli\napkin\napkin_07s.jpg	6	-1	0	0	napkin_07s.jpg	0	0.0	0	117.38304300093999	117.433019314776	0.0499763138359413	26762
26.862	50	202	0	0	noodle	1061	202	0	stimuli\noodle\noodle_08s.jpg	7	-1	0	0	noodle_08s.jpg	0	0.0	0	117.483050242066	117.53302216739401	0.0499719253275543	26862
26.962	50	203	0	0	rooster	1330	203	0	stimuli\rooster\rooster_01b.jpg	0	-1	0	0	rooster_01b.jpg	0	0.0	0	117.583046999411	117.633023313247	0.0499763138359413	26962
27.062	50	204	0	0	clothesline	362	204	0	stimuli\clothesline\clothesline_05s.jpg	4	-1	0	0	clothesline_05s.jpg	0	0.0	0	117.68305082724	117.7330315297	0.0499807024607435	27062
27.162	50	205	0	0	jeans	842	205	0	stimuli\jeans\jeans_08s.jpg	7	-1	0	0	jeans_08s.jpg	0	0.0	0	117.78305270453001	117.833029018482	0.0499763139523566	27162
27.262	50	206	0	0	soda	1490	206	0	stimuli\soda\soda_06s.jpg	5	-1	0	0	soda_06s.jpg	0	0.0	0	117.883055313258	117.93303967290599	0.0499843596480787	27262
27.362	50	207	0	0	syrup	1605	207	0	stimuli\syrup\syrup_03s.jpg	2	-1	0	0	syrup_03s.jpg	0	0.0	0	117.983058165875	118.03303643025	0.0499782643746585	27362
27.462	50	208	0	0	blowfish	146	208	0	stimuli\blowfish\blowfish_02s.jpg	1	-1	0	0	blowfish_02s.jpg	0	0.0	0	118.08305906795401	118.133037088555	0.0499780206009746	27462
27.562	50	209	0	0	bassinet	85	209	0	stimuli\bassinet\bassinet_04s.jpg	3	-1	0	0	bassinet_04s.jpg	0	0.0	0	118.183061189135	118.233040184947	0.0499789958121255	27562
27.662	50	210	0	0	mustard	1044	210	0	stimuli\mustard\mustard_01b.jpg	0	-1	0	0	mustard_01b.jpg	0	0.0	0	118.28306623594801	118.33304766984699	0.0499814338982105	27662
27.762	50	211	0	0	sauerkraut	1364	211	0	stimuli\sauerkraut\sauerkraut_03s.jpg	2	-1	0	0	sauerkraut_03s.jpg	0	0.0	0	118.383072989527	118.433056861511	0.0499838719842955	27762
27.862	50	212	0	0	pomegranate	1219	212	0	stimuli\pomegranate\pomegranate_03s.jpg	2	-1	0	0	pomegranate_03s.jpg	0	0.0	0	118.483069990645	118.533047035919	0.0499770452734083	27862
27.962	50	213	0	0	shield	1420	213	0	stimuli\shield\shield_09s.jpg	8	-1	0	0	shield_09s.jpg	0	0.0	0	118.583074062248	118.633053301834	0.0499792395858094	27962
28.062	50	214	0	0	guardrail	720	214	0	stimuli\guardrail\guardrail_06s.jpg	5	-1	0	1	guardrail_06s.jpg	0	0.0	0	118.68307813385	118.733052984928	0.0499748510774225	28062
28.162	50	215	0	0	tractor	1695	215	0	stimuli\tractor\tractor_04s.jpg	3	-1	0	0	tractor_04s.jpg	0	0.0	0	118.78307903592899	118.833058519405	0.0499794834759086	28162
28.262	50	216	0	0	umbrella	1743	216	0	stimuli\umbrella\umbrella_07s.jpg	6	-1	0	0	umbrella_07s.jpg	0	0.0	0	118.88308115711	118.9330582025	0.0499770453898236	28262
28.362	50	217	0	0	ice-cream_cone	817	217	0	stimuli\ice-cream_cone\ice-cream_cone_02s.jpg	1	-1	0	0	ice-cream_cone_02s.jpg	0	0.0	0	118.98308376583701	119.03306007978998	0.0499763139523566	28362
28.462	50	218	0	0	football_helmet	630	218	0	stimuli\football_helmet\football_helmet_02s.jpg	1	-1	0	0	football_helmet_02s.jpg	1	0.402502899523824	1	119.08308734989299	119.133063176181	0.0499758262885734	28462
28.562	50	219	0	0	fig	581	219	0	stimuli\fig\fig_01b.jpg	0	-1	0	0	fig_01b.jpg	0	0.0	0	119.18309093383101	119.23306846676901	0.0499775329371914	28562
28.662	50	220	0	0	checkbook	310	220	0	stimuli\checkbook\checkbook_10s.jpg	9	-1	0	0	checkbook_10s.jpg	0	0.0	0	119.283093055012	119.333070344175	0.0499772891635075	28662
28.763	50	221	0	0	dumbbell	530	221	0	stimuli\dumbbell\dumbbell_01b.jpg	0	-1	0	0	dumbbell_01b.jpg	0	0.0	0	119.38310687895901	119.43307661008998	0.0499697311315686	28763
28.863	50	222	0	0	trap	1702	222	0	stimuli\trap\trap_02s.jpg	1	-1	0	0	trap_02s.jpg	0	0.0	0	119.483104123967	119.53307970648198	0.0499755825148895	28863
28.963	50	223	0	0	pumpkin	1253	223	0	stimuli\pumpkin\pumpkin_06s.jpg	5	-1	0	0	pumpkin_06s.jpg	0	0.0	0	119.58310356317101	119.63308231520901	0.0499787520384416	28963
29.063	50	224	0	0	zebra	1851	224	0	stimuli\zebra\zebra_04s.jpg	3	-1	0	0	zebra_04s.jpg	0	0.0	0	119.683105928125	119.73308589914801	0.0499799710232764	29063
29.163	50	225	0	0	can_opener	251	225	0	stimuli\can_opener\can_opener_06s.jpg	5	-1	0	0	can_opener_06s.jpg	0	0.0	0	119.783108536969	119.833086557453	0.0499780204845592	29163
29.263	50	226	0	0	sink	1447	226	0	stimuli\sink\sink_11s.jpg	10	-1	0	0	sink_11s.jpg	0	0.0	0	119.883113827556	119.933092823368	0.0499789958121255	29263
29.363	50	227	0	0	vending_machine	1757	227	0	stimuli\vending_machine\vending_machine_05s.jpg	4	-1	0	0	vending_machine_05s.jpg	0	0.0	0	119.98311472963499	120.033092750236	0.0499780206009746	29363
29.463	50	228	0	0	radio	1273	228	0	stimuli\radio\radio_03s.jpg	2	-1	0	0	radio_03s.jpg	0	0.0	0	120.08311587560499	120.133097309503	0.0499814338982105	29463
29.563	50	229	0	0	plug	1202	229	0	stimuli\plug\plug_10s.jpg	9	-1	0	0	plug_10s.jpg	0	0.0	0	120.183123848168	120.233097723918	0.0499738757498562	29563
29.663	50	230	0	0	jug	853	230	0	stimuli\jug\jug_09s.jpg	8	-1	0	0	jug_09s.jpg	0	0.0	0	120.283120605513	120.33310130797301	0.0499807024607435	29663
29.763	50	231	0	0	fly	621	231	0	stimuli\fly\fly_09s.jpg	8	-1	0	0	fly_09s.jpg	0	0.0	0	120.383132722811	120.433103672927	0.0499709501164034	29763
29.863	50	232	0	0	iguana	825	232	0	stimuli\iguana\iguana_03s.jpg	2	-1	0	0	iguana_03s.jpg	0	0.0	0	120.483126798295	120.53310481878	0.0499780204845592	29863
29.963	50	233	0	0	missile	1006	233	0	stimuli\missile\missile_04s.jpg	3	-1	0	0	missile_04s.jpg	0	0.0	0	120.58315378799999	120.63311254757	0.049958759569563	29963
30.063	50	234	0	0	shelf	1416	234	0	stimuli\shelf\shelf_03s.jpg	2	-1	0	0	shelf_03s.jpg	0	0.0	0	120.683134697727	120.733111986774	0.0499772890470922	30063
30.163	50	235	0	0	dish	489	235	0	stimuli\dish\dish_02s.jpg	1	-1	0	0	dish_02s.jpg	0	0.0	0	120.783135599806	120.833118252689	0.0499826528830454	30163
30.263	50	236	0	0	brick	199	236	0	stimuli\brick\brick_11s.jpg	10	-1	0	0	brick_11s.jpg	0	0.0	0	120.88314064661999	120.933118667221	0.0499780206009746	30263
30.363	50	237	0	0	motherboard	1024	237	0	stimuli\motherboard\motherboard_05s.jpg	4	-1	0	0	motherboard_05s.jpg	0	0.0	0	120.983140573488	121.03311859408899	0.0499780206009746	30363
30.463	50	238	0	0	mallet	962	238	0	stimuli\mallet\mallet_05s.jpg	4	-1	0	0	mallet_05s.jpg	0	0.0	0	121.08314318221501	121.133123153239	0.0499799710232764	30463
30.563	50	239	0	0	polo_shirt	1216	239	0	stimuli\polo_shirt\polo_shirt_09s.jpg	8	-1	0	0	polo_shirt_09s.jpg	0	0.0	0	121.183146766271	121.23312649351999	0.0499797272495925	30563
30.663	50	240	0	0	train	1698	240	0	stimuli\train\train_02s.jpg	1	-1	0	0	train_02s.jpg	0	0.0	0	121.283148643561	121.333127395599	0.0499787520384416	30663
30.763	50	241	0	0	defibrillator	477	241	0	stimuli\defibrillator\defibrillator_09s.jpg	8	-1	0	0	defibrillator_09s.jpg	0	0.0	0	121.383153934265	121.433131467202	0.0499775329371914	30763
30.863	50	242	0	0	meatloaf	990	242	0	stimuli\meatloaf\meatloaf_07s.jpg	6	-1	0	0	meatloaf_07s.jpg	0	0.0	0	121.483153861132	121.533131637843	0.0499777767108753	30863
30.963	50	243	0	0	cockroach	373	243	0	stimuli\cockroach\cockroach_10n.jpg	9	-1	0	0	cockroach_10n.jpg	0	0.0	0	121.58315646986	121.633136440883	0.0499799710232764	30963
31.063	50	244	0	0	maple_syrup	971	244	0	stimuli\maple_syrup\maple_syrup_06s.jpg	5	-1	0	0	maple_syrup_06s.jpg	0	0.0	0	121.683163467213	121.733139049727	0.0499755825148895	31063
31.163	50	245	0	0	firetruck	596	245	0	stimuli\firetruck\firetruck_06s.jpg	5	-1	0	0	firetruck_06s.jpg	0	0.0	0	121.78316071210399	121.833142389893	0.0499816777883098	31163
31.263	50	246	0	0	blowgun	147	246	0	stimuli\blowgun\blowgun_09s.jpg	8	-1	0	0	blowgun_09s.jpg	0	0.0	0	121.883165759034	121.933145730058	0.0499799710232764	31263
31.363	50	247	0	0	donut	505	247	0	stimuli\donut\donut_07s.jpg	6	-1	0	0	donut_07s.jpg	0	0.0	0	121.983168611536	122.033146144473	0.0499775329371914	31363
31.463	50	248	0	0	mole	1014	248	0	stimuli\mole\mole_12s.jpg	11	-1	0	0	mole_12s.jpg	0	0.0	0	122.083182679373	122.13314899709101	0.0499663177179173	31463
31.563	50	249	0	0	mandolin	965	249	0	stimuli\mandolin\mandolin_12s.jpg	11	-1	0	0	mandolin_12s.jpg	0	0.0	0	122.18317334144399	122.23315233725599	0.0499789958121255	31563
31.663	50	250	0	0	piano	1165	250	0	stimuli\piano\piano_02n.jpg	1	-1	0	0	piano_02n.jpg	0	0.0	0	122.283176681609	122.333168843179	0.0499921615701169	31663
31.763	50	251	0	0	headscarf	768	251	0	stimuli\headscarf\headscarf_03s.jpg	2	-1	0	0	headscarf_03s.jpg	0	0.0	0	122.38318124087499	122.433160968125	0.0499797272495925	31763
31.863	50	252	0	0	bee	111	252	0	stimuli\bee\bee_08s.jpg	7	-1	0	0	bee_08s.jpg	0	0.0	0	122.48318165540701	122.533160407329	0.0499787519220263	31863
31.963	50	253	0	0	pulley	1250	253	0	stimuli\pulley\pulley_05s.jpg	4	-1	0	0	pulley_05s.jpg	0	0.0	0	122.583186702221	122.633161553298	0.0499748510774225	31963
32.063	50	254	0	0	slingshot	1467	254	0	stimuli\slingshot\slingshot_05s.jpg	4	-1	0	0	slingshot_05s.jpg	0	0.0	0	122.683187360526	122.733164162026	0.0499768014997244	32063
32.163	50	255	0	0	tick	1656	255	0	stimuli\tick\tick_11s.jpg	10	-1	0	0	tick_11s.jpg	0	0.0	0	122.783190700691	122.83316969650299	0.0499789958121255	32163
32.263	50	256	0	0	padlock	1095	256	0	stimuli\padlock\padlock_12s.jpg	11	-1	0	0	padlock_12s.jpg	0	0.0	0	122.88319160277	122.933175474755	0.0499838719842955	32263
32.363	50	257	0	0	bag	54	257	0	stimuli\bag\bag_06s.jpg	5	-1	0	0	bag_06s.jpg	0	0.0	0	122.983193967724	123.03317637695	0.0499824092257768	32363
32.463	50	258	0	0	stethoscope	1550	258	0	stimuli\stethoscope\stethoscope_04s.jpg	3	-1	0	0	stethoscope_04s.jpg	0	0.0	0	123.08319877076401	123.13317581615401	0.0499770453898236	32463
32.563	50	259	0	0	stingray	1556	259	0	stimuli\stingray\stingray_04s.jpg	3	-1	0	0	stingray_04s.jpg	0	0.0	0	123.183199916733	123.233178668772	0.0499787520384416	32563
32.663	50	260	0	0	razor_blade	1291	260	0	stimuli\razor_blade\razor_blade_11s.jpg	10	-1	0	0	razor_blade_11s.jpg	0	0.0	0	123.283201794024	123.333182740374	0.0499809463508427	32663
32.763	50	261	0	0	cookie	400	261	0	stimuli\cookie\cookie_10s.jpg	9	-1	0	0	cookie_10s.jpg	0	0.0	0	123.383207328501	123.433215093799	0.050007765297778	32763
32.863	50	262	0	0	jelly_bean	844	262	0	stimuli\jelly_bean\jelly_bean_01b.jpg	0	-1	0	0	jelly_bean_01b.jpg	0	0.0	0	123.48321676393999	123.533199416939	0.0499826529994607	32863
32.963	50	263	0	0	mosquito_net	1021	263	0	stimuli\mosquito_net\mosquito_net_12s.jpg	11	-1	0	0	mosquito_net_12s.jpg	0	0.0	0	123.583220835542	123.63321641041	0.0499955748673528	32963
33.063	50	264	0	0	gas_mask	660	264	0	stimuli\gas_mask\gas_mask_10s.jpg	9	-1	0	0	gas_mask_10s.jpg	0	0.0	0	123.683245630935	123.733229015372	0.0499833844369277	33063
33.163	50	265	0	0	handprint	750	265	0	stimuli\handprint\handprint_12s.jpg	11	-1	0	0	handprint_12s.jpg	0	0.0	0	123.783244095044	123.833223578404	0.0499794833594933	33163
33.263	50	266	0	0	pipe2	1187	266	0	stimuli\pipe2\pipe2_09s.jpg	8	-1	0	0	pipe2_09s.jpg	0	0.0	0	123.883244021796	123.93322448048299	0.0499804586870596	33263
33.363	50	267	0	0	clay	352	267	0	stimuli\clay\clay_02s.jpg	1	-1	0	0	clay_02s.jpg	0	0.0	0	123.98324638675	124.03322806453801	0.0499816777883098	33363
33.463	50	268	0	0	kitten	875	268	0	stimuli\kitten\kitten_11s.jpg	10	-1	0	0	kitten_11s.jpg	0	0.0	0	124.08323436696101	124.13323164847701	0.0499972815159708	33463
33.563	50	269	0	0	apron	33	269	0	stimuli\apron\apron_10s.jpg	9	-1	0	0	apron_10s.jpg	0	0.0	0	124.183253554744	124.233232063008	0.0499785082647577	33563
33.663	50	270	0	0	crystal2	454	270	0	stimuli\crystal2\crystal2_10s.jpg	9	-1	0	0	crystal2_10s.jpg	0	0.0	0	124.283259333111	124.333222968853	0.04996363574173301	33663
33.763	50	271	0	0	chopsticks	339	271	0	stimuli\chopsticks\chopsticks_09s.jpg	8	-1	0	0	chopsticks_09s.jpg	0	0.0	0	124.38326023519	124.433238255791	0.0499780206009746	33763
33.863	50	272	0	0	quad	1260	272	0	stimuli\quad\quad_01b.jpg	0	-1	0	0	quad_01b.jpg	0	0.0	0	124.48325869918301	124.53323964541799	0.0499809462344274	33863
33.963	50	273	0	0	navel	1052	273	0	stimuli\navel\navel_06s.jpg	5	-1	0	0	navel_06s.jpg	0	0.0	0	124.583260820364	124.633239816176	0.0499789958121255	33963
34.063	50	274	0	0	ice_pack	820	274	0	stimuli\ice_pack\ice_pack_02s.jpg	1	-1	0	0	ice_pack_02s.jpg	0	0.0	0	124.683263429091	124.73324437532601	0.0499809462344274	34063
34.163	50	275	0	0	champagne	304	275	0	stimuli\champagne\champagne_09s.jpg	8	-1	0	0	champagne_09s.jpg	0	0.0	0	124.783262868295	124.833246008842	0.0499831405468285	34163
34.263	50	276	0	0	swimming_pool	1596	276	0	stimuli\swimming_pool\swimming_pool_09s.jpg	8	-1	0	0	swimming_pool_09s.jpg	0	0.0	0	124.883266939898	124.93324983667101	0.0499828967731446	34263
34.363	50	277	0	0	vase	1753	277	0	stimuli\vase\vase_05s.jpg	4	-1	0	0	vase_05s.jpg	0	0.0	0	124.983273693477	125.033252445515	0.0499787520384416	34363
34.463	50	278	0	0	pogo_stick	1208	278	0	stimuli\pogo_stick\pogo_stick_01s.jpg	0	-1	0	0	pogo_stick_01s.jpg	0	0.0	0	125.083276058431	125.133257979993	0.0499819215619937	34463
34.563	50	279	0	0	outfit	1087	279	0	stimuli\outfit\outfit_08s.jpg	7	-1	0	0	outfit_08s.jpg	0	0.0	0	125.18327452242399	125.23326278303301	0.0499882606090978	34563
34.663	50	280	0	0	sword	1602	280	0	stimuli\sword\sword_10s.jpg	9	-1	0	0	sword_10s.jpg	0	0.0	0	125.283276643604	125.333260027925	0.0499833843205124	34663
34.763	50	281	0	0	bagel	55	281	0	stimuli\bagel\bagel_04s.jpg	3	-1	0	0	bagel_04s.jpg	0	0.0	0	125.38328388472999	125.43326214910499	0.0499782643746585	34763
34.863	50	282	0	0	denture	478	282	0	stimuli\denture\denture_06s.jpg	5	-1	0	0	denture_06s.jpg	0	0.0	0	125.48328478680901	125.533266952145	0.0499821653356776	34863
34.963	50	283	0	0	timer	1661	283	0	stimuli\timer\timer_09s.jpg	8	-1	0	0	timer_09s.jpg	0	0.0	0	125.58328861463801	125.63327004853599	0.0499814338982105	34963
35.063	50	284	0	0	tapestry	1625	284	0	stimuli\tapestry\tapestry_10s.jpg	9	-1	0	0	tapestry_10s.jpg	0	0.0	0	125.683290491928	125.733276558225	0.0499860662966967	35063
35.163	50	285	0	0	backgammon	48	285	0	stimuli\backgammon\backgammon_08s.jpg	7	-1	0	0	backgammon_08s.jpg	0	0.0	0	125.783292369219	125.833273071796	0.0499807025771588	35163
35.263	50	286	0	0	pelican	1140	286	0	stimuli\pelican\pelican_07s.jpg	6	-1	0	0	pelican_07s.jpg	0	0.0	0	125.883294002851	125.933278362383	0.0499843595316634	35263
35.363	50	287	0	0	omelet	1076	287	0	stimuli\omelet\omelet_11s.jpg	10	-1	0	0	omelet_11s.jpg	0	0.0	0	125.983298318228	126.033280483563	0.0499821653356776	35363
35.463	50	288	0	0	sock	1489	288	0	stimuli\sock\sock_09s.jpg	8	-1	0	0	sock_09s.jpg	0	0.0	0	126.08330019551799	126.133287968463	0.0499877729453146	35463
35.563	50	289	0	0	donkey	504	289	0	stimuli\donkey\donkey_06s.jpg	5	-1	0	0	donkey_06s.jpg	0	0.0	0	126.18329963483801	126.233283750596	0.0499841157579795	35563
35.663	50	290	0	0	honeypot	790	290	0	stimuli\honeypot\honeypot_04s.jpg	3	-1	0	0	honeypot_04s.jpg	0	0.0	0	126.283303706441	126.333285871777	0.0499821653356776	35663
35.763	50	291	0	0	snowsuit	1486	291	0	stimuli\snowsuit\snowsuit_05s.jpg	4	-1	0	0	snowsuit_05s.jpg	0	0.0	0	126.38331070379401	126.433287749067	0.0499770452734083	35763
35.863	50	292	0	0	coffee_table	381	292	0	stimuli\coffee_table\coffee_table_02s.jpg	1	-1	0	0	coffee_table_02s.jpg	0	0.0	0	126.48331575060699	126.533291576896	0.0499758262885734	35863
35.963	50	293	0	0	bathrobe	90	293	0	stimuli\bathrobe\bathrobe_05s.jpg	4	-1	0	0	bathrobe_05s.jpg	0	0.0	0	126.583319090772	126.633298086585	0.0499789958121255	35963
36.063	50	294	0	0	orange_rind	1079	294	0	stimuli\orange_rind\orange_rind_03s.jpg	2	-1	0	0	orange_rind_03s.jpg	0	0.0	0	126.683315848117	126.73330167063999	0.0499858225230128	36063
36.163	50	295	0	0	gem	670	295	0	stimuli\gem\gem_08s.jpg	7	-1	0	0	gem_08s.jpg	0	0.0	0	126.783319675946	126.833301597508	0.0499819215619937	36163
36.263	50	296	0	0	pliers	1201	296	0	stimuli\pliers\pliers_04s.jpg	3	-1	0	0	pliers_04s.jpg	0	0.0	0	126.88331984658701	126.93330152437599	0.0499816777883098	36263
36.363	50	297	0	0	nacho	1045	297	0	stimuli\nacho\nacho_04s.jpg	3	-1	0	0	nacho_04s.jpg	0	0.0	0	126.983322699205	127.033304864541	0.0499821653356776	36363
36.463	50	298	0	0	shears	1412	298	0	stimuli\shears\shears_03s.jpg	2	-1	0	0	shears_03s.jpg	0	0.0	0	127.083329452667	127.133308936143	0.0499794834759086	36463
36.563	50	299	0	0	coffee	377	299	0	stimuli\coffee\coffee_02s.jpg	1	-1	0	0	coffee_02s.jpg	0	0.0	0	127.183328891988	127.233312520082	0.0499836280941963	36563
36.663	50	300	0	0	milkshake	1002	300	0	stimuli\milkshake\milkshake_10s.jpg	9	-1	0	0	milkshake_10s.jpg	0	0.0	0	127.28333467023899	127.33331415359899	0.0499794833594933	36663
36.763	50	301	0	0	birdcage	130	301	0	stimuli\birdcage\birdcage_04s.jpg	3	-1	0	0	birdcage_04s.jpg	0	0.0	0	127.383335328544	127.433315787115	0.0499804585706443	36763
36.863	50	302	0	0	phone_booth	1162	302	0	stimuli\phone_booth\phone_booth_07s.jpg	6	-1	0	0	phone_booth_07s.jpg	0	0.0	0	127.48333866871	127.533319614944	0.0499809462344274	36863
36.963	50	303	0	0	pallet	1101	303	0	stimuli\pallet\pallet_04s.jpg	3	-1	0	0	pallet_04s.jpg	0	0.0	0	127.583339814562	127.633321736124	0.0499819215619937	36963
37.063	50	304	0	0	snail	1476	304	0	stimuli\snail\snail_11s.jpg	10	-1	0	0	snail_11s.jpg	0	0.0	0	127.683344861493	127.73332629539101	0.0499814338982105	37063
37.163	50	305	0	0	basket	82	305	0	stimuli\basket\basket_06s.jpg	5	-1	0	0	basket_06s.jpg	0	0.0	0	127.783349420642	127.83332719747	0.0499777768272907	37163
37.263	50	306	0	0	column	388	306	0	stimuli\column\column_03s.jpg	2	-1	0	0	column_03s.jpg	0	0.0	0	127.883347153314	127.933328343323	0.0499811900081113	37263
37.363	50	307	0	0	hash	756	307	0	stimuli\hash\hash_01b.jpg	0	-1	0	0	hash_01b.jpg	0	0.0	0	127.98334976204201	128.033329733065	0.0499799710232764	37363
37.463	50	308	0	0	totem_pole	1689	308	0	stimuli\totem_pole\totem_pole_11s.jpg	10	-1	0	0	totem_pole_11s.jpg	0	0.0	0	128.083359928918	128.13333599898002	0.0499760700622573	37463
45.713	50	309	0	0	wrist	1842	0	1	stimuli\wrist\wrist_09s.jpg	8	-1	1	0	wrist_09s.jpg	0	0.0	0	136.333579174592	136.383561339928	0.0499821653356776	45713
45.813	50	310	0	0	meerkat	992	1	1	stimuli\meerkat\meerkat_04s.jpg	3	-1	1	0	meerkat_04s.jpg	0	0.0	0	136.433565691928	136.483563704882	0.0499980129534379	45813
45.913	50	311	0	0	bowler_hat	178	2	1	stimuli\bowler_hat\bowler_hat_02s.jpg	1	-1	1	0	bowler_hat_02s.jpg	0	0.0	0	136.533581222524	136.583560949774	0.0499797272495925	45913
46.013	50	312	0	0	salami	1349	3	1	stimuli\salami\salami_04s.jpg	3	-1	1	0	salami_04s.jpg	0	0.0	0	136.63358188082898	136.683563314728	0.0499814338982105	46013
46.113	50	313	0	0	lasagna	898	4	1	stimuli\lasagna\lasagna_06s.jpg	5	-1	1	0	lasagna_06s.jpg	0	0.0	0	136.733588390518	136.783567873994	0.0499794834759086	46113
46.213	50	314	0	0	aquarium	34	5	1	stimuli\aquarium\aquarium_01b.jpg	0	-1	1	0	aquarium_01b.jpg	0	0.0	0	136.83358880505	136.883571945596	0.0499831405468285	46213
46.313	50	315	0	0	sledgehammer	1461	6	1	stimuli\sledgehammer\sledgehammer_09s.jpg	8	-1	1	0	sledgehammer_09s.jpg	0	0.0	0	136.933588244254	136.983572360128	0.0499841158743948	46313
46.413	50	316	0	0	forklift	635	7	1	stimuli\forklift\forklift_03s.jpg	2	-1	1	0	forklift_03s.jpg	0	0.0	0	137.033591584419	137.083572774543	0.0499811901245266	46413
46.513	50	317	0	0	bulletin_board	217	8	1	stimuli\bulletin_board\bulletin_board_05s.jpg	4	-1	1	0	bulletin_board_05s.jpg	0	0.0	0	137.13359468081	137.183580990997	0.0499863101867959	46513
46.613	50	318	0	0	flyswatter	623	9	1	stimuli\flyswatter\flyswatter_11s.jpg	10	-1	1	0	flyswatter_11s.jpg	0	0.0	0	137.233600946725	137.28356068162202	0.0499597348971292	46613
46.713	50	319	0	0	hopscotch	796	10	1	stimuli\hopscotch\hopscotch_07s.jpg	6	-1	1	0	hopscotch_07s.jpg	0	0.0	0	137.333573810756	137.383555732318	0.0499819215619937	46713
46.813	50	320	0	0	blanket	136	11	1	stimuli\blanket\blanket_01b.jpg	0	-1	1	0	blanket_01b.jpg	0	0.0	0	137.43357154331198	137.48355687817102	0.0499853348592296	46813
46.913	50	321	0	0	paper_towel	1115	12	1	stimuli\paper_towel\paper_towel_06s.jpg	5	-1	1	0	paper_towel_06s.jpg	0	0.0	0	137.533579515875	137.583560949774	0.0499814338982105	46913
47.013	50	322	0	0	fuse	652	13	1	stimuli\fuse\fuse_05s.jpg	4	-1	1	0	fuse_05s.jpg	0	0.0	0	137.633580174181	137.683563802391	0.0499836282106116	47013
47.113	50	323	0	0	scale	1371	14	1	stimuli\scale\scale_03s.jpg	2	-1	1	0	scale_03s.jpg	0	0.0	0	137.733585220994	137.783567873994	0.0499826529994607	47113
47.213	50	324	0	0	star_fruit	1540	15	1	stimuli\star_fruit\star_fruit_04s.jpg	3	-1	1	0	star_fruit_04s.jpg	0	0.0	0	137.833587342175	137.883571945596	0.0499846034217626	47213
47.313	50	325	0	0	slot_machine	1470	16	1	stimuli\slot_machine\slot_machine_05s.jpg	4	-1	1	0	slot_machine_05s.jpg	0	0.0	0	137.933585806168	137.983573091566	0.0499872853979468	47313
47.413	50	326	0	0	headband	762	17	1	stimuli\headband\headband_10s.jpg	9	-1	1	0	headband_10s.jpg	0	0.0	0	138.033590365434	138.083574481192	0.0499841157579795	47413
47.513	50	327	0	0	nail_file	1048	18	1	stimuli\nail_file\nail_file_03s.jpg	2	-1	1	0	nail_file_03s.jpg	0	0.0	0	138.133598337998	138.183579284232	0.0499809462344274	47513
47.613	50	328	0	0	clover	366	19	1	stimuli\clover\clover_11s.jpg	10	-1	1	1	clover_11s.jpg	0	0.0	0	138.233596314327	138.283580186428	0.0499838721007109	47613
47.713	50	329	0	0	turf	1732	20	1	stimuli\turf\turf_03s.jpg	2	-1	1	0	turf_03s.jpg	0	0.0	0	138.33360038604602	138.383585720905	0.0499853348592296	47713
47.813	50	330	0	0	tab	1607	21	1	stimuli\tab\tab_04s.jpg	3	-1	1	0	tab_04s.jpg	0	0.0	0	138.433604701422	138.483588085859	0.0499833844369277	47813
47.913	50	331	0	0	hatchet	759	22	1	stimuli\hatchet\hatchet_04s.jpg	3	-1	1	0	hatchet_04s.jpg	0	0.0	0	138.533604384516	138.583588256501	0.0499838719842955	47913
48.013	50	332	0	0	stalagmite	1534	23	1	stimuli\stalagmite\stalagmite_01b.jpg	0	-1	1	0	stalagmite_01b.jpg	0	0.0	0	138.633608456119	138.683589890017	0.0499814338982105	48013
48.113	50	333	0	0	groundhog	718	24	1	stimuli\groundhog\groundhog_03n.jpg	2	-1	1	0	groundhog_03n.jpg	0	0.0	0	138.733608870534	138.783594449284	0.0499855787493289	48113
48.213	50	334	0	0	chime	328	25	1	stimuli\chime\chime_02s.jpg	1	-1	1	0	chime_02s.jpg	1	0.592161085922271	1	138.833615624113	138.883597058011	0.0499814338982105	48213
48.313	50	335	0	0	lipstick	936	26	1	stimuli\lipstick\lipstick_12s.jpg	11	-1	1	0	lipstick_12s.jpg	0	0.0	0	138.933616526192	138.983598691528	0.0499821653356776	48313
48.413	50	336	0	0	cleaver	354	27	1	stimuli\cleaver\cleaver_08s.jpg	7	-1	1	0	cleaver_08s.jpg	0	0.0	0	139.03361742827101	139.083602275467	0.0499848471954465	48413
48.513	50	337	0	0	earwig	541	28	1	stimuli\earwig\earwig_11s.jpg	10	-1	1	0	earwig_11s.jpg	0	0.0	0	139.133620036999	139.183607322397	0.0499872853979468	48513
48.613	50	338	0	0	chickpea	325	29	1	stimuli\chickpea\chickpea_05s.jpg	4	-1	1	0	chickpea_05s.jpg	0	0.0	0	139.233620939194	139.283605054952	0.0499841157579795	48613
48.713	50	339	0	0	boxing_gloves	183	30	1	stimuli\boxing_gloves\boxing_gloves_04s.jpg	3	-1	1	0	boxing_gloves_04s.jpg	0	0.0	0	139.333629155532	139.383609370328	0.0499802147969604	48713
48.813	50	340	0	0	biscuit	133	31	1	stimuli\biscuit\biscuit_07s.jpg	6	-1	1	0	biscuit_07s.jpg	0	0.0	0	139.433630789048	139.483613198157	0.0499824091093615	48813
48.913	50	341	0	0	vegetable	1754	32	1	stimuli\vegetable\vegetable_11s.jpg	10	-1	1	0	vegetable_11s.jpg	0	0.0	0	139.533631447353	139.583614100236	0.0499826528830454	48913
49.013	50	342	0	0	fruit	645	33	1	stimuli\fruit\fruit_01b.jpg	0	-1	1	0	fruit_01b.jpg	0	0.0	0	139.63363308087	139.683619634714	0.0499865538440645	49013
49.113	50	343	0	0	footbath	631	34	1	stimuli\footbath\footbath_01s.jpg	0	-1	1	0	footbath_01s.jpg	0	0.0	0	139.733639834332	139.783621024457	0.0499811901245266	49113
49.213	50	344	0	0	french_fries	641	35	1	stimuli\french_fries\french_fries_06s.jpg	5	-1	1	0	french_fries_06s.jpg	0	0.0	0	139.83364024886401	139.883622170426	0.0499819215619937	49213
49.313	50	345	0	0	gate	662	36	1	stimuli\gate\gate_03s.jpg	2	-1	1	0	gate_03s.jpg	0	0.0	0	139.933641394717	139.98362380394198	0.0499824092257768	49313
49.413	50	346	0	0	applesauce	32	37	1	stimuli\applesauce\applesauce_05s.jpg	4	-1	1	0	applesauce_05s.jpg	0	0.0	0	140.033646197757	140.083631045069	0.0499848473118618	49413
49.513	50	347	0	0	cooker	399	38	1	stimuli\cooker\cooker_07s.jpg	6	-1	1	0	cooker_07s.jpg	0	0.0	0	140.133645880851	140.183629996609	0.0499841157579795	49513
49.613	50	348	0	0	beaver	107	39	1	stimuli\beaver\beaver_09s.jpg	8	-1	1	0	beaver_09s.jpg	0	0.0	0	140.233647758141	140.28363431210198	0.0499865539604798	49613
49.713	50	349	0	0	ketchup	867	40	1	stimuli\ketchup\ketchup_12s.jpg	11	-1	1	0	ketchup_12s.jpg	0	0.0	0	140.333654755494	140.383655937971	0.0500011824769899	49713
49.813	50	350	0	0	tambourine	1619	41	1	stimuli\tambourine\tambourine_09s.jpg	8	-1	1	0	tambourine_09s.jpg	0	0.0	0	140.433654926135	140.483640017221	0.0499850910855457	49813
49.913	50	351	0	0	tomato	1672	42	1	stimuli\tomato\tomato_10n.jpg	9	-1	1	0	tomato_10n.jpg	0	0.0	0	140.533657291089	140.583645795472	0.0499885043827817	49913
50.013	50	352	0	0	sparkler	1507	43	1	stimuli\sparkler\sparkler_11s.jpg	10	-1	1	0	sparkler_11s.jpg	0	0.0	0	140.633662825567	140.683644015691	0.0499811901245266	50013
50.113	50	353	0	0	chandelier	305	44	1	stimuli\chandelier\chandelier_05s.jpg	4	-1	1	0	chandelier_05s.jpg	0	0.0	0	140.733664459083	140.783651256817	0.0499867977341637	50113
50.213	50	354	0	0	smoothie	1474	45	1	stimuli\smoothie\smoothie_09s.jpg	8	-1	1	0	smoothie_09s.jpg	0	0.0	0	140.833665361279	140.8836499647	0.0499846034217626	50213
50.313	50	355	0	0	eye	564	46	1	stimuli\eye\eye_03s.jpg	2	-1	1	0	eye_03s.jpg	0	0.0	0	140.93366821378	140.983654036303	0.0499858225230128	50313
50.413	50	356	0	0	onion	1077	47	1	stimuli\onion\onion_01b.jpg	0	-1	1	0	onion_01b.jpg	0	0.0	0	141.033670822508	141.083658595569	0.04998777306173	50413
50.513	50	357	0	0	espresso	560	48	1	stimuli\espresso\espresso_04s.jpg	3	-1	1	0	espresso_04s.jpg	0	0.0	0	141.133674894227	141.18365876621098	0.0499838719842955	50513
50.613	50	358	0	0	grater	708	49	1	stimuli\grater\grater_03s.jpg	2	-1	1	0	grater_03s.jpg	0	0.0	0	141.233677502954	141.283663569251	0.0499860662966967	50613
50.713	50	359	0	0	cigarette	344	50	1	stimuli\cigarette\cigarette_12s.jpg	11	-1	1	0	cigarette_12s.jpg	0	0.0	0	141.333681818331	141.38366300845502	0.0499811901245266	50713
50.813	50	360	0	0	manhole	967	51	1	stimuli\manhole\manhole_09n.jpg	8	-1	1	0	manhole_09n.jpg	0	0.0	0	141.43368247663602	141.483663910534	0.0499814338982105	50813
50.913	50	361	0	0	otter	1085	52	1	stimuli\otter\otter_01b.jpg	0	-1	1	0	otter_01b.jpg	0	0.0	0	141.53368411015302	141.583668957464	0.0499848473118618	50913
51.013	50	362	0	0	incubator	827	53	1	stimuli\incubator\incubator_01b.jpg	0	-1	1	0	incubator_01b.jpg	0	0.0	0	141.633686231333	141.683670590981	0.0499843596480787	51013
51.113	50	363	0	0	tack	1611	54	1	stimuli\tack\tack_07s.jpg	6	-1	1	0	tack_07s.jpg	0	0.0	0	141.733688108623	141.783675394021	0.0499872853979468	51113
51.213	50	364	0	0	salad	1348	55	1	stimuli\salad\salad_09s.jpg	8	-1	1	0	salad_09s.jpg	0	0.0	0	141.833692424116	141.88367580843598	0.0499833843205124	51213
51.313	50	365	0	0	dreidel	517	56	1	stimuli\dreidel\dreidel_02s.jpg	1	-1	1	0	dreidel_02s.jpg	0	0.0	0	141.933694057632	141.983676710515	0.0499826528830454	51313
51.413	50	366	0	0	scaffolding	1370	57	1	stimuli\scaffolding\scaffolding_05s.jpg	4	-1	1	0	scaffolding_05s.jpg	0	0.0	0	142.033699835883	142.083681757445	0.0499819215619937	51413
51.513	50	367	0	0	sequin	1404	58	1	stimuli\sequin\sequin_09s.jpg	8	-1	1	0	sequin_09s.jpg	0	0.0	0	142.133699031314	142.183684609947	0.0499855786329135	51513
51.613	50	368	0	0	quill	1263	59	1	stimuli\quill\quill_05s.jpg	4	-1	1	0	quill_05s.jpg	0	0.0	0	142.233700908604	142.28369087586202	0.0499899672577158	51613
51.713	50	369	0	0	vest	1759	60	1	stimuli\vest\vest_08s.jpg	7	-1	1	0	vest_08s.jpg	0	0.0	0	142.333706443082	142.383692265605	0.0499858225230128	51713
51.813	50	370	0	0	showerhead	1436	61	1	stimuli\showerhead\showerhead_11s.jpg	10	-1	1	0	showerhead_11s.jpg	0	0.0	0	142.433708076598	142.483694142895	0.0499860662966967	51813
51.913	50	371	0	0	engine	557	62	1	stimuli\engine\engine_12s.jpg	11	-1	1	0	engine_12s.jpg	0	0.0	0	142.53371239209102	142.583698458388	0.0499860662966967	51913
52.013	50	372	0	0	piggy_bank	1172	63	1	stimuli\piggy_bank\piggy_bank_02s.jpg	1	-1	1	0	piggy_bank_02s.jpg	0	0.0	0	142.633712806506	142.68369960424	0.0499867977341637	52013
52.113	50	373	0	0	shell1	1417	64	1	stimuli\shell1\shell1_02s.jpg	1	-1	1	0	shell1_02s.jpg	0	0.0	0	142.733717121999	142.783701237757	0.0499841157579795	52113
52.213	50	374	0	0	chin	330	65	1	stimuli\chin\chin_07s.jpg	6	-1	1	0	chin_07s.jpg	0	0.0	0	142.833719243179	142.8837026275	0.0499833843205124	52213
52.313	50	375	0	0	domino	503	66	1	stimuli\domino\domino_10s.jpg	9	-1	1	0	domino_10s.jpg	0	0.0	0	142.93372331478201	142.983707186766	0.0499838719842955	52313
52.413	50	376	0	0	badge	52	67	1	stimuli\badge\badge_04s.jpg	3	-1	1	0	badge_04s.jpg	0	0.0	0	143.033728361595	143.083711014595	0.0499826529994607	52413
52.513	50	377	0	0	wreath	1839	68	1	stimuli\wreath\wreath_06s.jpg	5	-1	1	0	wreath_06s.jpg	0	0.0	0	143.13372682558798	143.18370850326	0.0499816776718944	52513
52.613	50	378	0	0	octopus	1070	69	1	stimuli\octopus\octopus_10s.jpg	9	-1	1	0	octopus_10s.jpg	0	0.0	0	143.23373260384	143.283715013065	0.0499824092257768	52613
52.713	50	379	0	0	bed	108	70	1	stimuli\bed\bed_03s.jpg	2	-1	1	0	bed_03s.jpg	0	0.0	0	143.333738869755	143.383716158918	0.0499772891635075	52713
52.813	50	380	0	0	toaster_oven	1667	71	1	stimuli\toaster_oven\toaster_oven_08s.jpg	7	-1	1	0	toaster_oven_08s.jpg	0	0.0	0	143.433736358536	143.483720230521	0.0499838719842955	52813
52.913	50	381	0	0	satellite_dish	1361	72	1	stimuli\satellite_dish\satellite_dish_05s.jpg	4	-1	1	0	satellite_dish_05s.jpg	0	0.0	0	143.533742136788	143.583725033561	0.0499828967731446	52913
53.013	50	382	0	0	garlic	658	73	1	stimuli\garlic\garlic_09s.jpg	8	-1	1	0	garlic_09s.jpg	0	0.0	0	143.633740844671	143.683724960429	0.0499841157579795	53013
53.113	50	383	0	0	fencepost	576	74	1	stimuli\fencepost\fencepost_02s.jpg	1	-1	1	0	fencepost_02s.jpg	0	0.0	0	143.733749548672	143.783729275921	0.0499797272495925	53113
53.213	50	384	0	0	yacht	1844	75	1	stimuli\yacht\yacht_06s.jpg	5	-1	1	0	yacht_06s.jpg	0	0.0	0	143.833749963087	143.883728958899	0.0499789958121255	53213
53.313	50	385	0	0	dough	513	76	1	stimuli\dough\dough_08s.jpg	7	-1	1	0	dough_08s.jpg	0	0.0	0	143.933750621392	143.983732786728	0.0499821653356776	53313
53.413	50	386	0	0	fireworks	598	77	1	stimuli\fireworks\fireworks_11s.jpg	10	-1	1	0	fireworks_11s.jpg	0	0.0	0	144.033773222589	144.08373539545602	0.0499621728667989	53413
53.513	50	387	0	0	strawberry	1570	78	1	stimuli\strawberry\strawberry_04n.jpg	3	-1	1	0	strawberry_04n.jpg	0	0.0	0	144.133755107527	144.1837380043	0.0499828967731446	53513
53.613	50	388	0	0	filing_cabinet	585	79	1	stimuli\filing_cabinet\filing_cabinet_09s.jpg	8	-1	1	0	filing_cabinet_09s.jpg	0	0.0	0	144.233757228591	144.283740856801	0.0499836282106116	53613
53.713	50	389	0	0	bracket	189	80	1	stimuli\bracket\bracket_08s.jpg	7	-1	1	0	bracket_08s.jpg	0	0.0	0	144.333760812646	144.383742734208	0.0499819215619937	53713
53.813	50	390	0	0	blazer	137	81	1	stimuli\blazer\blazer_07s.jpg	6	-1	1	0	blazer_07s.jpg	0	0.0	0	144.43376342137302	144.483747781022	0.0499843596480787	53813
53.913	50	391	0	0	splinter	1516	82	1	stimuli\splinter\splinter_07s.jpg	6	-1	1	0	splinter_07s.jpg	0	0.0	0	144.533771637827	144.583753315499	0.0499816776718944	53913
54.013	50	392	0	0	wing	1827	83	1	stimuli\wing\wing_01b.jpg	0	-1	1	0	wing_01b.jpg	0	0.0	0	144.63377278368	144.683758118539	0.0499853348592296	54013
54.113	50	393	0	0	folder	625	84	1	stimuli\folder\folder_11s.jpg	10	-1	1	0	folder_11s.jpg	0	0.0	0	144.733790264814	144.783756826306	0.0499665614916012	54113
54.213	50	394	0	0	chest1	319	85	1	stimuli\chest1\chest1_05s.jpg	4	-1	1	0	chest1_05s.jpg	0	0.0	0	144.83377775736201	144.883760898025	0.0499831406632438	54213
54.313	50	395	0	0	ink	829	86	1	stimuli\ink\ink_10s.jpg	9	-1	1	0	ink_10s.jpg	0	0.0	0	144.933780366206	144.983767651487	0.0499872852815315	54313
54.413	50	396	0	0	stair	1532	87	1	stimuli\stair\stair_11s.jpg	10	-1	1	0	stair_11s.jpg	0	0.0	0	145.03378565679301	145.083768797456	0.0499831406632438	54413
54.513	50	397	0	0	parking_meter	1120	88	1	stimuli\parking_meter\parking_meter_01b.jpg	0	-1	1	0	parking_meter_01b.jpg	0	0.0	0	145.13378460845	145.183769211872	0.0499846034217626	54513
54.613	50	398	0	0	anteater	25	89	1	stimuli\anteater\anteater_12s.jpg	11	-1	1	0	anteater_12s.jpg	0	0.0	0	145.233787704841	145.28377182059901	0.0499841157579795	54613
54.713	50	399	0	0	headlight	765	90	1	stimuli\headlight\headlight_11s.jpg	10	-1	1	0	headlight_11s.jpg	0	0.0	0	145.333792020218	145.38377540465402	0.0499833844369277	54713
54.813	50	400	0	0	rollerskate	1327	91	1	stimuli\rollerskate\rollerskate_09s.jpg	8	-1	1	0	rollerskate_09s.jpg	0	0.0	0	145.433794872835	145.483777038171	0.0499821653356776	54813
54.913	50	401	0	0	streetlight	1571	92	1	stimuli\streetlight\streetlight_05s.jpg	4	-1	1	0	streetlight_05s.jpg	0	0.0	0	145.533796994016	145.58377867168699	0.0499816776718944	54913
55.013	50	402	0	0	ski_lift	1454	93	1	stimuli\ski_lift\ski_lift_11s.jpg	10	-1	1	0	ski_lift_11s.jpg	0	0.0	0	145.63379960274298	145.68378006142999	0.0499804586870596	55013
55.113	50	403	0	0	jewel	849	94	1	stimuli\jewel\jewel_03s.jpg	2	-1	1	0	jewel_03s.jpg	0	0.0	0	145.733800748596	145.783788277768	0.0499875291716307	55113
55.213	50	404	0	0	possum	1228	95	1	stimuli\possum\possum_03s.jpg	2	-1	1	0	possum_03s.jpg	0	0.0	0	145.83380360121402	145.883787473198	0.0499838719842955	55213
55.313	50	405	0	0	satellite	1360	96	1	stimuli\satellite\satellite_01b.jpg	0	-1	1	0	satellite_01b.jpg	0	0.0	0	145.933806453831	145.983795933425	0.0499894795939326	55313
55.413	50	406	0	0	trombone	1716	97	1	stimuli\trombone\trombone_03s.jpg	2	-1	1	0	trombone_03s.jpg	0	0.0	0	146.033809550107	146.083792934543	0.0499833844369277	55413
55.513	50	407	0	0	jumpsuit	859	98	1	stimuli\jumpsuit\jumpsuit_11s.jpg	10	-1	1	0	jumpsuit_11s.jpg	0	0.0	0	146.133812646498	146.183797006146	0.0499843596480787	55513
55.613	50	408	0	0	stump	1576	99	1	stimuli\stump\stump_06s.jpg	5	-1	1	0	stump_06s.jpg	0	0.0	0	146.233826958109	146.283801321639	0.0499743635300547	55613
55.713	50	409	0	0	crutch	452	100	1	stimuli\crutch\crutch_01b.jpg	0	-1	1	0	crutch_01b.jpg	0	0.0	0	146.333819570718	146.38380124839	0.0499816776718944	55713
55.813	50	410	0	0	barrette	77	101	1	stimuli\barrette\barrette_02s.jpg	1	-1	1	0	barrette_02s.jpg	0	0.0	0	146.433820716687	146.483816779102	0.0499960624147207	55813
55.913	50	411	0	0	cornmeal	415	102	1	stimuli\cornmeal\cornmeal_09s.jpg	8	-1	1	0	cornmeal_09s.jpg	0	0.0	0	146.533826738712	146.583805246977	0.0499785082647577	55913
56.013	50	412	0	0	bin	125	103	1	stimuli\bin\bin_07s.jpg	6	-1	1	0	bin_07s.jpg	0	0.0	0	146.633825202705	146.683809562353	0.0499843596480787	56013
56.113	50	413	0	0	flagpole	606	104	1	stimuli\flagpole\flagpole_12s.jpg	11	-1	1	0	flagpole_12s.jpg	0	0.0	0	146.733829761972	146.783812658745	0.0499828967731446	56113
56.213	50	414	0	0	pulpit	1251	105	1	stimuli\pulpit\pulpit_02s.jpg	1	-1	1	0	pulpit_02s.jpg	0	0.0	0	146.833831639262	146.88381307316	0.0499814338982105	56213
56.313	50	415	0	0	steering_wheel	1546	106	1	stimuli\steering_wheel\steering_wheel_02s.jpg	1	-1	1	0	steering_wheel_02s.jpg	0	0.0	0	146.933833029005	146.983815682004	0.0499826529994607	56313
56.413	50	416	0	0	avocado	43	107	1	stimuli\avocado\avocado_10s.jpg	9	-1	1	0	avocado_10s.jpg	0	0.0	0	147.033838319709	147.08382170402902	0.0499833843205124	56413
56.513	50	417	0	0	sponge	1517	108	1	stimuli\sponge\sponge_06s.jpg	5	-1	1	0	sponge_06s.jpg	0	0.0	0	147.133840440772	147.183825775632	0.0499853348592296	56513
56.613	50	418	0	0	mold2	1013	109	1	stimuli\mold2\mold2_05s.jpg	4	-1	1	0	mold2_05s.jpg	0	0.0	0	147.233841830515	147.283831066336	0.0499892358202487	56613
56.713	50	419	0	0	kangaroo	862	110	1	stimuli\kangaroo\kangaroo_02s.jpg	1	-1	1	0	kangaroo_02s.jpg	0	0.0	0	147.33384517068	147.38382782368	0.0499826529994607	56713
56.813	50	420	0	0	yak	1845	111	1	stimuli\yak\yak_12s.jpg	11	-1	1	0	yak_12s.jpg	0	0.0	0	147.433848754736	147.48383506480602	0.0499863100703806	56813
56.913	50	421	0	0	bowtie	180	112	1	stimuli\bowtie\bowtie_07s.jpg	6	-1	1	0	bowtie_07s.jpg	0	0.0	0	147.53385087591602	147.583832553588	0.0499816776718944	56913
57.013	50	422	0	0	tent	1643	113	1	stimuli\tent\tent_03s.jpg	2	-1	1	0	tent_03s.jpg	0	0.0	0	147.633851777995	147.683834918542	0.0499831405468285	57013
57.113	50	423	0	0	petri_dish	1159	114	1	stimuli\petri_dish\petri_dish_11s.jpg	10	-1	1	0	petri_dish_11s.jpg	0	0.0	0	147.733855605824	147.783838746371	0.0499831405468285	57113
57.213	50	424	0	0	pepper1	1149	115	1	stimuli\pepper1\pepper1_02s.jpg	1	-1	1	0	pepper1_02s.jpg	0	0.0	0	147.833857726888	147.88384233031	0.0499846034217626	57213
57.313	50	425	0	0	solar_panel	1493	116	1	stimuli\solar_panel\solar_panel_04s.jpg	3	-1	1	0	solar_panel_04s.jpg	0	0.0	0	147.933862529928	147.983845914365	0.0499833844369277	57313
57.413	50	426	0	0	straw2	1569	117	1	stimuli\straw2\straw2_10s.jpg	9	-1	1	0	straw2_10s.jpg	0	0.0	0	148.033863188233	148.08384706021798	0.0499838719842955	57413
57.513	50	427	0	0	battery	97	118	1	stimuli\battery\battery_09n.jpg	8	-1	1	0	battery_09n.jpg	0	0.0	0	148.133867991273	148.183849425172	0.0499814338982105	57513
57.613	50	428	0	0	window	1818	119	1	stimuli\window\window_08s.jpg	7	-1	1	0	window_08s.jpg	0	0.0	0	148.233869381016	148.283851790125	0.0499824091093615	57613
57.713	50	429	0	0	red_carpet	1298	120	1	stimuli\red_carpet\red_carpet_06s.jpg	5	-1	1	0	red_carpet_06s.jpg	0	0.0	0	148.33387198974398	148.383857324603	0.0499853348592296	57713
57.813	50	430	0	0	inhaler	828	121	1	stimuli\inhaler\inhaler_10s.jpg	9	-1	1	0	inhaler_10s.jpg	0	0.0	0	148.43387313571301	148.483858714346	0.0499855786329135	57813
57.913	50	431	0	0	spool	1518	122	1	stimuli\spool\spool_08s.jpg	7	-1	1	0	spool_08s.jpg	0	0.0	0	148.533875744441	148.58386010408898	0.0499843596480787	57913
58.013	50	432	0	0	saffron	1345	123	1	stimuli\saffron\saffron_09s.jpg	8	-1	1	0	saffron_09s.jpg	0	0.0	0	148.633886886528	148.68386295659	0.0499760700622573	58013
58.113	50	433	0	0	boomerang	168	124	1	stimuli\boomerang\boomerang_03s.jpg	2	-1	1	0	boomerang_03s.jpg	0	0.0	0	148.733883400098	148.78386556543398	0.0499821653356776	58113
58.213	50	434	0	0	patty	1126	125	1	stimuli\patty\patty_06s.jpg	5	-1	1	0	patty_06s.jpg	0	0.0	0	148.833885765052	148.883868905599	0.0499831405468285	58213
58.313	50	435	0	0	wax_paper	1796	126	1	stimuli\wax_paper\wax_paper_03s.jpg	2	-1	1	0	wax_paper_03s.jpg	0	0.0	0	148.933887642343	148.98387005145202	0.0499824091093615	58313
58.413	50	436	0	0	bracelet1	187	127	1	stimuli\bracelet1\bracelet1_08s.jpg	7	-1	1	0	bracelet1_08s.jpg	0	0.0	0	149.033889763523	149.083871684968	0.0499819214455783	58413
58.513	50	437	0	0	toast	1665	128	1	stimuli\toast\toast_05s.jpg	4	-1	1	0	toast_05s.jpg	0	0.0	0	149.13389237225098	149.183877463336	0.0499850910855457	58513
58.613	50	438	0	0	bowl	177	129	1	stimuli\bowl\bowl_06n.jpg	5	-1	1	0	bowl_06n.jpg	0	0.0	0	149.233899369603	149.28388446057198	0.0499850909691304	58613
58.713	50	439	0	0	seal	1397	130	1	stimuli\seal\seal_02s.jpg	1	-1	1	0	seal_02s.jpg	0	0.0	0	149.333898808807	149.38388121791598	0.0499824091093615	58713
58.813	50	440	0	0	stew	1551	131	1	stimuli\stew\stew_10s.jpg	9	-1	1	0	stew_10s.jpg	0	0.0	0	149.43390019855	149.483884801972	0.0499846034217626	58813
58.913	50	441	0	0	exerciser	561	132	1	stimuli\exerciser\exerciser_06s.jpg	5	-1	1	0	exerciser_06s.jpg	0	0.0	0	149.533903051051	149.58388619171498	0.0499831406632438	58913
59.013	50	442	0	0	lifesaver	925	133	1	stimuli\lifesaver\lifesaver_01b.jpg	0	-1	1	0	lifesaver_01b.jpg	0	0.0	0	149.63390687888	149.683888069005	0.0499811901245266	59013
59.113	50	443	0	0	knob	882	134	1	stimuli\knob\knob_06s.jpg	5	-1	1	0	knob_06s.jpg	0	0.0	0	149.73391216958402	149.78389311581898	0.0499809462344274	59113
59.213	50	444	0	0	hook2	794	135	1	stimuli\hook2\hook2_04s.jpg	3	-1	1	0	hook2_04s.jpg	0	0.0	0	149.833911608788	149.883897187538	0.0499855787493289	59213
59.313	50	445	0	0	electric_chair	553	136	1	stimuli\electric_chair\electric_chair_07s.jpg	6	-1	1	0	electric_chair_07s.jpg	0	0.0	0	149.933915680391	149.983896870515	0.0499811901245266	59313
59.413	50	446	0	0	bank	69	137	1	stimuli\bank\bank_01b.jpg	0	-1	1	0	bank_01b.jpg	0	0.0	0	150.033918045345	150.083901186008	0.0499831406632438	59413
59.513	50	447	0	0	urinal	1748	138	1	stimuli\urinal\urinal_05s.jpg	4	-1	1	0	urinal_05s.jpg	0	0.0	0	150.133920410299	150.183902331861	0.0499819215619937	59513
59.613	50	448	0	0	raccoon	1266	139	1	stimuli\raccoon\raccoon_04n.jpg	3	-1	1	0	raccoon_04n.jpg	0	0.0	0	150.23392375058	150.283904696815	0.0499809462344274	59613
59.713	50	449	0	0	quilt	1264	140	1	stimuli\quilt\quilt_06s.jpg	5	-1	1	0	quilt_06s.jpg	0	0.0	0	150.333923433558	150.383907549432	0.0499841158743948	59713
59.813	50	450	0	0	robot	1318	141	1	stimuli\robot\robot_03n.jpg	2	-1	1	0	robot_03n.jpg	0	0.0	0	150.433927261387	150.483911377145	0.0499841157579795	59813
59.913	50	451	0	0	bow3	176	142	1	stimuli\bow3\bow3_10s.jpg	9	-1	1	0	bow3_10s.jpg	0	0.0	0	150.533932064427	150.583952995483	0.0500209310557693	59913
60.013	50	452	0	0	palette	1100	143	1	stimuli\palette\palette_03s.jpg	2	-1	1	0	palette_03s.jpg	0	0.0	0	150.633952958859	150.68391488806802	0.0499619292095304	60013
60.113	50	453	0	0	skull	1458	144	1	stimuli\skull\skull_05s.jpg	4	-1	1	0	skull_05s.jpg	0	0.0	0	150.733938013436	150.78391871589702	0.0499807024607435	60113
60.213	50	454	0	0	honey	788	145	1	stimuli\honey\honey_04s.jpg	3	-1	1	0	honey_04s.jpg	0	0.0	0	150.833939403063	150.88391986175	0.0499804586870596	60213
60.313	50	455	0	0	gumball	725	146	1	stimuli\gumball\gumball_06s.jpg	5	-1	1	0	gumball_06s.jpg	0	0.0	0	150.933940549032	150.983926127665	0.0499855786329135	60313
60.413	50	456	0	0	man	963	147	1	stimuli\man\man_07s.jpg	6	-1	1	0	man_07s.jpg	0	0.0	0	151.033947790158	151.083926298306	0.0499785081483424	60413
60.513	50	457	0	0	cork	409	148	1	stimuli\cork\cork_04s.jpg	3	-1	1	0	cork_04s.jpg	0	0.0	0	151.133948448463	151.183930369909	0.0499819214455783	60513
60.613	50	458	0	0	hatbox	758	149	1	stimuli\hatbox\hatbox_06s.jpg	5	-1	1	0	hatbox_06s.jpg	0	0.0	0	151.233948619105	151.283933222527	0.0499846034217626	60613
60.713	50	459	0	0	tape_recorder	1624	150	1	stimuli\tape_recorder\tape_recorder_05s.jpg	4	-1	1	0	tape_recorder_05s.jpg	0	0.0	0	151.333952446934	151.383935587481	0.0499831405468285	60713
60.813	50	460	0	0	station_wagon	1542	151	1	stimuli\station_wagon\station_wagon_09s.jpg	8	-1	1	0	station_wagon_09s.jpg	0	0.0	0	151.43395481188801	151.483934782911	0.0499799710232764	60813
60.913	50	461	0	0	notebook	1064	152	1	stimuli\notebook\notebook_07s.jpg	6	-1	1	0	notebook_07s.jpg	0	0.0	0	151.533958395827	151.583940317389	0.0499819215619937	60913
61.013	50	462	0	0	nail	1046	153	1	stimuli\nail\nail_12s.jpg	11	-1	1	0	nail_12s.jpg	0	0.0	0	151.633960029343	151.683944876655	0.0499848473118618	61013
61.113	50	463	0	0	toga	1669	154	1	stimuli\toga\toga_04s.jpg	3	-1	1	0	toga_04s.jpg	0	0.0	0	151.733962881961	151.783946510172	0.0499836282106116	61113
61.213	50	464	0	0	fire_hydrant	592	155	1	stimuli\fire_hydrant\fire_hydrant_04s.jpg	3	-1	1	0	fire_hydrant_04s.jpg	0	0.0	0	151.833965003141	151.883947168477	0.0499821653356776	61213
61.313	50	465	0	0	cougar	423	156	1	stimuli\cougar\cougar_11s.jpg	10	-1	1	0	cougar_11s.jpg	0	0.0	0	151.933966636658	151.983951483853	0.0499848471954465	61313
61.413	50	466	0	0	stiletto	1554	157	1	stimuli\stiletto\stiletto_09s.jpg	8	-1	1	0	stiletto_09s.jpg	0	0.0	0	152.033974365331	152.083954336471	0.0499799711396918	61413
61.513	50	467	0	0	remote_control	1302	158	1	stimuli\remote_control\remote_control_04s.jpg	3	-1	1	0	remote_control_04s.jpg	0	0.0	0	152.133975998848	152.18395523855	0.0499792397022247	61513
61.613	50	468	0	0	elbow	552	159	1	stimuli\elbow\elbow_02s.jpg	1	-1	1	0	elbow_02s.jpg	0	0.0	0	152.233976901043	152.28395882248898	0.0499819214455783	61613
61.713	50	469	0	0	shaker	1408	160	1	stimuli\shaker\shaker_03s.jpg	2	-1	1	0	shaker_03s.jpg	0	0.0	0	152.333979753545	152.38396265031798	0.0499828967731446	61713
61.813	50	470	0	0	melon	994	161	1	stimuli\melon\melon_03s.jpg	2	-1	1	0	melon_03s.jpg	0	0.0	0	152.433981874725	152.483962820959	0.0499809462344274	61813
61.913	50	471	0	0	mitten	1008	162	1	stimuli\mitten\mitten_09s.jpg	8	-1	1	0	mitten_09s.jpg	0	0.0	0	152.533983264468	152.583965917351	0.0499826528830454	61913
62.013	50	472	0	0	shovel	1432	163	1	stimuli\shovel\shovel_10s.jpg	9	-1	1	0	shovel_10s.jpg	0	0.0	0	152.63398733607	152.683969013742	0.0499816776718944	62013
62.113	50	473	0	0	dolly	501	164	1	stimuli\dolly\dolly_08s.jpg	7	-1	1	0	dolly_08s.jpg	0	0.0	0	152.733990188572	152.783972841571	0.0499826529994607	62113
62.213	50	474	0	0	oil	1072	165	1	stimuli\oil\oil_02s.jpg	1	-1	1	0	oil_02s.jpg	0	0.0	0	152.83399084687701	152.883974962751	0.0499841158743948	62213
62.313	50	475	0	0	cucumber	457	166	1	stimuli\cucumber\cucumber_04s.jpg	3	-1	1	0	cucumber_04s.jpg	0	0.0	0	152.933993699495	152.983978790464	0.0499850909691304	62313
62.413	50	476	0	0	spoon	1519	167	1	stimuli\spoon\spoon_02s.jpg	1	-1	1	1	spoon_02s.jpg	0	0.0	0	153.03399703966002	153.083980424097	0.0499833844369277	62413
62.513	50	477	0	0	water_filter	1789	168	1	stimuli\water_filter\water_filter_07s.jpg	6	-1	1	0	water_filter_07s.jpg	0	0.0	0	153.13400013605101	153.183982789051	0.0499826529994607	62513
62.613	50	478	0	0	wood	1833	169	1	stimuli\wood\wood_06s.jpg	5	-1	1	0	wood_06s.jpg	0	0.0	0	153.234002744779	153.283985154005	0.0499824092257768	62613
62.713	50	479	0	0	bookshelf	167	170	1	stimuli\bookshelf\bookshelf_08s.jpg	7	-1	1	0	bookshelf_08s.jpg	0	0.0	0	153.334004134522	153.38398849417	0.0499843596480787	62713
62.813	50	480	0	0	bowling_ball	179	171	1	stimuli\bowling_ball\bowling_ball_03s.jpg	2	-1	1	0	bowling_ball_03s.jpg	0	0.0	0	153.434012107085	153.483991834335	0.0499797272495925	62813
62.913	50	481	0	0	eggplant	550	172	1	stimuli\eggplant\eggplant_12s.jpg	11	-1	1	0	eggplant_12s.jpg	1	0.492157501867041	1	153.534012033953	153.583992736414	0.0499807024607435	62913
63.013	50	482	0	0	tray	1705	173	1	stimuli\tray\tray_03s.jpg	2	-1	1	0	tray_03s.jpg	0	0.0	0	153.634014642681	153.683995589032	0.0499809463508427	63013
63.113	50	483	0	0	stove2	1564	174	1	stimuli\stove2\stove2_09s.jpg	8	-1	1	0	stove2_09s.jpg	0	0.0	0	153.734016520088	153.784000148182	0.0499836280941963	63113
63.213	50	484	0	0	clipper2	357	175	1	stimuli\clipper2\clipper2_11s.jpg	10	-1	1	0	clipper2_11s.jpg	0	0.0	0	153.83404741075398	153.88402616267598	0.0499787519220263	63213
63.313	50	485	0	0	cantaloupe	263	176	1	stimuli\cantaloupe\cantaloupe_03s.jpg	2	-1	1	0	cantaloupe_03s.jpg	0	0.0	0	153.93405465188	153.984035598114	0.0499809462344274	63313
63.413	50	486	0	0	soccer_ball	1488	177	1	stimuli\soccer_ball\soccer_ball_05s.jpg	4	-1	1	0	soccer_ball_05s.jpg	0	0.0	0	154.034052628209	154.084039425943	0.0499867977341637	63413
63.513	50	487	0	0	chalkboard	303	178	1	stimuli\chalkboard\chalkboard_07s.jpg	6	-1	1	0	chalkboard_07s.jpg	0	0.0	0	154.134042315069	154.18403642706102	0.0499941119924188	63513
63.613	50	488	0	0	clarinet	350	179	1	stimuli\clarinet\clarinet_03s.jpg	2	-1	1	0	clarinet_03s.jpg	0	0.0	0	154.234045167686	154.28404147399098	0.0499963063048199	63613
63.713	50	489	0	0	guacamole	719	180	1	stimuli\guacamole\guacamole_02s.jpg	1	-1	1	0	guacamole_02s.jpg	0	0.0	0	154.33406142971901	154.38404213218	0.0499807024607435	63713
63.813	50	490	0	0	windshield	1820	181	1	stimuli\windshield\windshield_08s.jpg	7	-1	1	0	windshield_08s.jpg	0	0.0	0	154.434047703282	154.484044984798	0.0499972815159708	63813
63.913	50	491	0	0	alpaca	15	182	1	stimuli\alpaca\alpaca_05s.jpg	4	-1	1	0	alpaca_05s.jpg	0	0.0	0	154.534049824462	154.584050275502	0.0500004510395229	63913
64.013	50	492	0	0	modem	1011	183	1	stimuli\modem\modem_05s.jpg	4	-1	1	0	modem_05s.jpg	0	0.0	0	154.634073644644	154.684050689917	0.0499770452734083	64013
64.113	50	493	0	0	bookmark	166	184	1	stimuli\bookmark\bookmark_04s.jpg	3	-1	1	0	bookmark_04s.jpg	0	0.0	0	154.73407015809798	154.784048178699	0.0499780206009746	64113
64.213	50	494	0	0	scalpel	1374	185	1	stimuli\scalpel\scalpel_01b.jpg	0	-1	1	0	scalpel_01b.jpg	0	0.0	0	154.834072766942	154.884049324552	0.0499765576096252	64213
64.313	50	495	0	0	blueberry	149	186	1	stimuli\blueberry\blueberry_05s.jpg	4	-1	1	0	blueberry_05s.jpg	0	0.0	0	154.93407659465402	154.984052908607	0.0499763139523566	64313
64.413	50	496	0	0	weed	1802	187	1	stimuli\weed\weed_11s.jpg	10	-1	1	0	weed_11s.jpg	0	0.0	0	155.034078959608	155.084058443084	0.0499794834759086	64413
64.513	50	497	0	0	butter	228	188	1	stimuli\butter\butter_10s.jpg	9	-1	1	0	butter_10s.jpg	0	0.0	0	155.134078398929	155.184060320375	0.0499819214455783	64513
64.613	50	498	0	0	guinea_pig	722	189	1	stimuli\guinea_pig\guinea_pig_05s.jpg	4	-1	1	0	guinea_pig_05s.jpg	0	0.0	0	155.234081982868	155.28406195389098	0.0499799710232764	64613
64.713	50	499	0	0	rollerblade	1326	190	1	stimuli\rollerblade\rollerblade_02s.jpg	1	-1	1	0	rollerblade_02s.jpg	0	0.0	0	155.33408337261102	155.384064318845	0.0499809462344274	64713
64.813	50	500	0	0	chalk	302	191	1	stimuli\chalk\chalk_04s.jpg	3	-1	1	0	chalk_04s.jpg	0	0.0	0	155.43408671277598	155.48407082865	0.0499841158743948	64813
64.913	50	501	0	0	bra	185	192	1	stimuli\bra\bra_03s.jpg	2	-1	1	0	bra_03s.jpg	0	0.0	0	155.534090784378	155.584074412589	0.0499836282106116	64913
65.013	50	502	0	0	corkboard	410	193	1	stimuli\corkboard\corkboard_08s.jpg	7	-1	1	0	corkboard_08s.jpg	0	0.0	0	155.634093393222	155.684070438496	0.0499770452734083	65013
65.113	50	503	0	0	faucet	573	194	1	stimuli\faucet\faucet_08s.jpg	7	-1	1	0	faucet_08s.jpg	0	0.0	0	155.734097220935	155.784074022551	0.0499768016161397	65113
65.213	50	504	0	0	handkerchief	747	195	1	stimuli\handkerchief\handkerchief_09s.jpg	8	-1	1	0	handkerchief_09s.jpg	0	0.0	0	155.834096660255	155.884078581701	0.0499819214455783	65213
65.313	50	505	0	0	doghouse	497	196	1	stimuli\doghouse\doghouse_08s.jpg	7	-1	1	0	doghouse_08s.jpg	0	0.0	0	155.934104876593	155.984084847616	0.0499799710232764	65313
65.413	50	506	0	0	bobsled	155	197	1	stimuli\bobsled\bobsled_04s.jpg	3	-1	1	0	bobsled_04s.jpg	0	0.0	0	156.034109192085	156.08408721257	0.0499780204845592	65413
65.513	50	507	0	0	walrus	1779	198	1	stimuli\walrus\walrus_09s.jpg	8	-1	1	0	walrus_09s.jpg	0	0.0	0	156.13410594931298	156.184084457578	0.0499785082647577	65513
65.613	50	508	0	0	flask	612	199	1	stimuli\flask\flask_06s.jpg	5	-1	1	0	flask_06s.jpg	0	0.0	0	156.234115628642	156.284090723493	0.0499750948511064	65613
65.713	50	509	0	0	bottle	170	200	1	stimuli\bottle\bottle_10s.jpg	9	-1	1	0	bottle_10s.jpg	0	0.0	0	156.334110435448	156.384089675033	0.0499792395858094	65713
65.813	50	510	0	0	snow	1479	201	1	stimuli\snow\snow_04s.jpg	3	-1	1	0	snow_04s.jpg	0	0.0	0	156.4341174328	156.484094965737	0.0499775329371914	65813
65.913	50	511	0	0	blimp	139	202	1	stimuli\blimp\blimp_04n.jpg	3	-1	1	0	blimp_04n.jpg	0	0.0	0	156.534120772965	156.584097574465	0.0499768014997244	65913
66.013	50	512	0	0	stool	1561	203	1	stimuli\stool\stool_08s.jpg	7	-1	1	0	stool_08s.jpg	0	0.0	0	156.634118749411	156.684106278466	0.0499875290552154	66013
66.113	50	513	0	0	lizard	937	204	1	stimuli\lizard\lizard_09n.jpg	8	-1	1	0	lizard_09n.jpg	0	0.0	0	156.734122821013	156.784102060599	0.0499792395858094	66113
66.213	50	514	0	0	tulip	1726	205	1	stimuli\tulip\tulip_12s.jpg	11	-1	1	0	tulip_12s.jpg	0	0.0	0	156.834123235429	156.884103450342	0.0499802149133757	66213
66.313	50	515	0	0	trident	1712	206	1	stimuli\trident\trident_03s.jpg	2	-1	1	0	trident_03s.jpg	0	0.0	0	156.93412584427298	156.984108009608	0.0499821653356776	66313
66.413	50	516	0	0	crayon	435	207	1	stimuli\crayon\crayon_03s.jpg	2	-1	1	0	crayon_03s.jpg	0	0.0	0	157.03412820922702	157.084112568758	0.0499843595316634	66413
66.513	50	517	0	0	drain	515	208	1	stimuli\drain\drain_11s.jpg	10	-1	1	0	drain_11s.jpg	0	0.0	0	157.13413154939198	157.184115908924	0.0499843595316634	66513
66.613	50	518	0	0	mascara	978	209	1	stimuli\mascara\mascara_11s.jpg	10	-1	1	0	mascara_11s.jpg	0	0.0	0	157.234137083869	157.28411486058002	0.0499777767108753	66613
66.713	50	519	0	0	crowbar	447	210	1	stimuli\crowbar\crowbar_08s.jpg	7	-1	1	1	crowbar_08s.jpg	0	0.0	0	157.334135547862	157.38411771319798	0.0499821653356776	66713
66.813	50	520	0	0	table	1608	211	1	stimuli\table\table_08s.jpg	7	-1	1	0	table_08s.jpg	0	0.0	0	157.43413815659	157.484123735223	0.0499855786329135	66813
66.913	50	521	0	0	bottle_opener	171	212	1	stimuli\bottle_opener\bottle_opener_05s.jpg	4	-1	1	0	bottle_opener_05s.jpg	0	0.0	0	157.534141740645	157.58412439352801	0.0499826528830454	66913
67.013	50	522	0	0	green_beans	712	213	1	stimuli\green_beans\green_beans_06s.jpg	5	-1	1	0	green_beans_06s.jpg	0	0.0	0	157.63414849410802	157.684131634654	0.0499831405468285	67013
67.113	50	523	0	0	mustache	1043	214	1	stimuli\mustache\mustache_10s.jpg	9	-1	1	0	mustache_10s.jpg	0	0.0	0	157.734149152413	157.784133024397	0.0499838719842955	67113
67.213	50	524	0	0	jigsaw_puzzle	851	215	1	stimuli\jigsaw_puzzle\jigsaw_puzzle_09s.jpg	8	-1	1	0	jigsaw_puzzle_09s.jpg	0	0.0	0	157.834154443117	157.884130756953	0.0499763138359413	67213
67.313	50	525	0	0	moose	1018	216	1	stimuli\moose\moose_04s.jpg	3	-1	1	0	moose_04s.jpg	0	0.0	0	157.934160709032	157.98413287813298	0.0499721691012383	67313
67.413	50	526	0	0	grinder	716	217	1	stimuli\grinder\grinder_12s.jpg	11	-1	1	0	grinder_12s.jpg	0	0.0	0	158.034158197697	158.084137437399	0.0499792397022247	67413
67.513	50	527	0	0	leggings	912	218	1	stimuli\leggings\leggings_01b.jpg	0	-1	1	0	leggings_01b.jpg	0	0.0	0	158.134161537979	158.184140777565	0.0499792395858094	67513
67.613	50	528	0	0	mat	982	219	1	stimuli\mat\mat_10s.jpg	9	-1	1	0	mat_10s.jpg	0	0.0	0	158.234161220957	158.284139729221	0.0499785082647577	67613
67.713	50	529	0	0	gravel	709	220	1	stimuli\gravel\gravel_07n.jpg	6	-1	1	0	gravel_07n.jpg	0	0.0	0	158.334162366926	158.384168181685	0.0500058147590607	67713
67.813	50	530	0	0	hood	791	221	1	stimuli\hood\hood_01b.jpg	0	-1	1	0	hood_01b.jpg	0	0.0	0	158.43415327277	158.484152748599	0.0499994758283719	67813
67.913	50	531	0	0	rain_gauge	1278	222	1	stimuli\rain_gauge\rain_gauge_09s.jpg	8	-1	1	0	rain_gauge_09s.jpg	0	0.0	0	158.53417660540399	158.584152431693	0.0499758262885734	67913
68.013	50	532	0	0	flypaper	622	223	1	stimuli\flypaper\flypaper_10s.jpg	9	-1	1	0	flypaper_10s.jpg	0	0.0	0	158.634172387421	158.68415723473302	0.0499848473118618	68013
68.113	50	533	0	0	saw	1366	224	1	stimuli\saw\saw_08s.jpg	7	-1	1	0	saw_08s.jpg	0	0.0	0	158.73417499626498	158.784156186273	0.0499811900081113	68113
68.213	50	534	0	0	breadbox	195	225	1	stimuli\breadbox\breadbox_05s.jpg	4	-1	1	0	breadbox_05s.jpg	0	0.0	0	158.834178580204	158.884160501766	0.0499819215619937	68213
68.313	50	535	0	0	baby	46	226	1	stimuli\baby\baby_07s.jpg	6	-1	1	0	baby_07s.jpg	0	0.0	0	158.934185089893	158.98415994097	0.0499748510774225	68313
68.413	50	536	0	0	toilet_paper	1671	227	1	stimuli\toilet_paper\toilet_paper_08s.jpg	7	-1	1	0	toilet_paper_08s.jpg	0	0.0	0	159.03418355388598	159.084163768799	0.0499802149133757	68413
68.513	50	537	0	0	teacup	1633	228	1	stimuli\teacup\teacup_05s.jpg	4	-1	1	0	teacup_05s.jpg	0	0.0	0	159.134188356926	159.184163695667	0.0499753387412056	68513
68.613	50	538	0	0	fire_pit	593	229	1	stimuli\fire_pit\fire_pit_09s.jpg	8	-1	1	0	fire_pit_09s.jpg	0	0.0	0	159.234188771457	159.284169961582	0.0499811901245266	68613
68.713	50	539	0	0	ladle	887	230	1	stimuli\ladle\ladle_03s.jpg	2	-1	1	0	ladle_03s.jpg	0	0.0	0	159.334193330724	159.38417208264602	0.0499787519220263	68713
68.813	50	540	0	0	whale	1804	231	1	stimuli\whale\whale_11s.jpg	10	-1	1	0	whale_11s.jpg	0	0.0	0	159.43419496424	159.484174935264	0.0499799710232764	68813
68.913	50	541	0	0	wine	1823	232	1	stimuli\wine\wine_06s.jpg	5	-1	1	0	wine_06s.jpg	0	0.0	0	159.534194891108	159.584178763092	0.0499838719842955	68913
69.013	50	542	0	0	cheesecake	314	233	1	stimuli\cheesecake\cheesecake_04s.jpg	3	-1	1	0	cheesecake_04s.jpg	0	0.0	0	159.634200425586	159.684177958523	0.0499775329371914	69013
69.113	50	543	0	0	meat_grinder	988	234	1	stimuli\meat_grinder\meat_grinder_12s.jpg	11	-1	1	0	meat_grinder_12s.jpg	0	0.0	0	159.73419986478999	159.784187881509	0.0499880167189986	69113
69.213	50	544	0	0	wineglass	1826	235	1	stimuli\wineglass\wineglass_10s.jpg	9	-1	1	0	wineglass_10s.jpg	0	0.0	0	159.83420759358	159.884185857954	0.0499782643746585	69213
69.314	50	545	0	0	tattoo	1629	236	1	stimuli\tattoo\tattoo_09s.jpg	8	-1	1	0	tattoo_09s.jpg	0	0.0	0	159.934208251769	159.984193586628	0.0499853348592296	69314
69.414	50	546	0	0	box	181	237	1	stimuli\box\box_03s.jpg	2	-1	1	0	box_03s.jpg	0	0.0	0	160.034215005348	160.08418863732402	0.0499736319761723	69414
69.514	50	547	0	0	roller	1324	238	1	stimuli\roller\roller_03s.jpg	2	-1	1	0	roller_03s.jpg	0	0.0	0	160.134211762692	160.184194415691	0.0499826529994607	69514
69.614	50	548	0	0	telescope	1640	239	1	stimuli\telescope\telescope_11n.jpg	10	-1	1	0	telescope_11n.jpg	0	0.0	0	160.234216809506	160.284203119692	0.0499863101867959	69614
69.714	50	549	0	0	sandpaper	1356	240	1	stimuli\sandpaper\sandpaper_06s.jpg	5	-1	1	0	sandpaper_06s.jpg	0	0.0	0	160.334221612546	160.384224257898	0.050002645351924	69714
69.814	50	550	0	0	panties	1107	241	1	stimuli\panties\panties_03s.jpg	2	-1	1	0	panties_03s.jpg	0	0.0	0	160.434218857554	160.48420224187402	0.0499833843205124	69814
69.914	50	551	0	0	road_sign	1315	242	1	stimuli\road_sign\road_sign_10s.jpg	9	-1	1	0	road_sign_10s.jpg	0	0.0	0	160.534223660594	160.584226549719	0.0500028891256079	69914
70.014	50	552	0	0	fingerprint	589	243	1	stimuli\fingerprint\fingerprint_06s.jpg	5	-1	1	0	fingerprint_06s.jpg	0	0.0	0	160.634231389384	160.684212823282	0.0499814338982105	70014
70.114	50	553	0	0	dumpster	533	244	1	stimuli\dumpster\dumpster_09s.jpg	8	-1	1	0	dumpster_09s.jpg	0	0.0	0	160.734233998111	160.784219576744	0.0499855786329135	70114
70.214	50	554	0	0	dishwasher	491	245	1	stimuli\dishwasher\dishwasher_03s.jpg	2	-1	1	0	dishwasher_03s.jpg	0	0.0	0	160.834233681206	160.884211457917	0.0499777767108753	70214
70.314	50	555	0	0	go-kart	682	246	1	stimuli\go-kart\go-kart_06s.jpg	5	-1	1	0	go-kart_06s.jpg	0	0.0	0	160.93423507083202	160.98421504197202	0.0499799711396918	70314
70.414	50	556	0	0	towel	1692	247	1	stimuli\towel\towel_03s.jpg	2	-1	1	0	towel_03s.jpg	0	0.0	0	161.034237435786	161.084215456387	0.0499780206009746	70414
70.514	50	557	0	0	alligator	12	248	1	stimuli\alligator\alligator_06s.jpg	5	-1	1	0	alligator_06s.jpg	0	0.0	0	161.134239556966	161.184220503201	0.0499809462344274	70514
70.614	50	558	0	0	needle	1055	249	1	stimuli\needle\needle_11s.jpg	10	-1	1	0	needle_11s.jpg	0	0.0	0	161.234242897131	161.284223355819	0.0499804586870596	70614
70.714	50	559	0	0	water_fountain	1790	250	1	stimuli\water_fountain\water_fountain_05s.jpg	4	-1	1	0	water_fountain_05s.jpg	0	0.0	0	161.334245749749	161.384228402632	0.0499826528830454	70714
70.814	50	560	0	0	stockings	1559	251	1	stimuli\stockings\stockings_04s.jpg	3	-1	1	0	stockings_04s.jpg	0	0.0	0	161.434250065126	161.484228817164	0.0499787520384416	70814
70.914	50	561	0	0	loincloth	944	252	1	stimuli\loincloth\loincloth_04s.jpg	3	-1	1	0	loincloth_04s.jpg	0	0.0	0	161.534254380618	161.584231669782	0.0499772891635075	70914
71.014	50	562	0	0	pole	1213	253	1	stimuli\pole\pole_05s.jpg	4	-1	1	0	pole_05s.jpg	0	0.0	0	161.634252600721	161.684234034736	0.0499814340146258	71014
71.114	50	563	0	0	waffle	1770	254	1	stimuli\waffle\waffle_04s.jpg	3	-1	1	0	waffle_04s.jpg	0	0.0	0	161.73425813519898	161.78423542436198	0.0499772891635075	71114
71.214	50	564	0	0	blinder	141	255	1	stimuli\blinder\blinder_12s.jpg	11	-1	1	0	blinder_12s.jpg	0	0.0	0	161.834257574519	161.884237545542	0.0499799710232764	71214
71.314	50	565	0	0	tadpole	1614	256	1	stimuli\tadpole\tadpole_08s.jpg	7	-1	1	0	tadpole_08s.jpg	0	0.0	0	161.934261646122	161.984245030442	0.0499833843205124	71314
71.414	50	566	0	0	mouth	1031	257	1	stimuli\mouth\mouth_03s.jpg	2	-1	1	0	mouth_03s.jpg	0	0.0	0	162.034263523412	162.084247639286	0.0499841158743948	71414
71.514	50	567	0	0	machete	953	258	1	stimuli\machete\machete_09s.jpg	8	-1	1	0	machete_09s.jpg	0	0.0	0	162.13426661980301	162.18424927280302	0.0499826529994607	71514
71.614	50	568	0	0	dagger	469	259	1	stimuli\dagger\dagger_01b.jpg	0	-1	1	0	dagger_01b.jpg	0	0.0	0	162.234273129492	162.284253832069	0.0499807025771588	71614
71.714	50	569	0	0	weather_vane	1798	260	1	stimuli\weather_vane\weather_vane_07s.jpg	6	-1	1	0	weather_vane_07s.jpg	0	0.0	0	162.334275738336	162.384252539836	0.0499768014997244	71714
71.814	50	570	0	0	punch2	1255	261	1	stimuli\punch2\punch2_11s.jpg	10	-1	1	0	punch2_11s.jpg	0	0.0	0	162.434276152751	162.484258074313	0.0499819215619937	71814
71.914	50	571	0	0	kneepad	878	262	1	stimuli\kneepad\kneepad_08s.jpg	7	-1	1	0	kneepad_08s.jpg	0	0.0	0	162.534282418666	162.584255319205	0.0499729005387053	71914
72.014	50	572	0	0	cherry	316	263	1	stimuli\cherry\cherry_09s.jpg	8	-1	1	0	cherry_09s.jpg	0	0.0	0	162.63427966367502	162.684264023206	0.0499843595316634	72014
72.114	50	573	0	0	insole	831	264	1	stimuli\insole\insole_06s.jpg	5	-1	1	0	insole_06s.jpg	0	0.0	0	162.734283491387	162.784263950074	0.0499804586870596	72114
72.214	50	574	0	0	car	267	265	1	stimuli\car\car_04s.jpg	3	-1	1	0	car_04s.jpg	0	0.0	0	162.834290488739	162.884264852153	0.0499743634136394	72214
72.314	50	575	0	0	payphone	1127	266	1	stimuli\payphone\payphone_09s.jpg	8	-1	1	0	payphone_09s.jpg	0	0.0	0	162.934291147045	162.984270874294	0.0499797272495925	72314
72.414	50	576	0	0	branch	192	267	1	stimuli\branch\branch_09s.jpg	8	-1	1	0	branch_09s.jpg	0	0.0	0	163.034293024335	163.084270313499	0.0499772891635075	72414
72.514	50	577	0	0	arm	36	268	1	stimuli\arm\arm_10s.jpg	9	-1	1	0	arm_10s.jpg	0	0.0	0	163.134292707429	163.18427779851498	0.0499850910855457	72514
72.614	50	578	0	0	trampoline	1701	269	1	stimuli\trampoline\trampoline_10s.jpg	9	-1	1	0	trampoline_10s.jpg	0	0.0	0	163.234293853282	163.284276506281	0.0499826529994607	72614
72.714	50	579	0	0	rattlesnake	1288	270	1	stimuli\rattlesnake\rattlesnake_05s.jpg	4	-1	1	0	rattlesnake_05s.jpg	0	0.0	0	163.334297193564	163.384277408361	0.0499802147969604	72714
72.814	50	580	0	0	wind_chimes	1817	271	1	stimuli\wind_chimes\wind_chimes_02s.jpg	1	-1	1	0	wind_chimes_02s.jpg	0	0.0	0	163.434301996604	163.484282699064	0.0499807024607435	72814
72.914	50	581	0	0	container	398	272	1	stimuli\container\container_06s.jpg	5	-1	1	0	container_06s.jpg	0	0.0	0	163.534305580542	163.584287745878	0.0499821653356776	72914
73.014	50	582	0	0	jacket	836	273	1	stimuli\jacket\jacket_05s.jpg	4	-1	1	0	jacket_05s.jpg	0	0.0	0	163.634307701723	163.684286697535	0.0499789958121255	73014
73.114	50	583	0	0	gramophone	699	274	1	stimuli\gramophone\gramophone_03s.jpg	2	-1	1	0	gramophone_03s.jpg	0	0.0	0	163.73431884381	163.784293207224	0.0499743634136394	73114
73.214	50	584	0	0	ice	816	275	1	stimuli\ice\ice_02s.jpg	1	-1	1	0	ice_02s.jpg	0	0.0	0	163.834310724982	163.884292402654	0.0499816776718944	73214
73.314	50	585	0	0	detonator	482	276	1	stimuli\detonator\detonator_04s.jpg	3	-1	1	0	detonator_04s.jpg	0	0.0	0	163.93431625946002	163.98429501138202	0.0499787519220263	73314
73.414	50	586	0	0	roof_rack	1329	277	1	stimuli\roof_rack\roof_rack_08s.jpg	7	-1	1	0	roof_rack_08s.jpg	0	0.0	0	164.034318624414	164.084301521187	0.0499828967731446	73414
73.514	50	587	0	0	ready_meal	1292	278	1	stimuli\ready_meal\ready_meal_07s.jpg	6	-1	1	0	ready_meal_07s.jpg	0	0.0	0	164.134323671227	164.184300960391	0.0499772891635075	73514
73.614	50	588	0	0	firecracker	594	279	1	stimuli\firecracker\firecracker_04s.jpg	3	-1	1	0	firecracker_04s.jpg	0	0.0	0	164.23432798672	164.284303325345	0.0499753386247903	73614
73.714	50	589	0	0	tree	1708	280	1	stimuli\tree\tree_05s.jpg	4	-1	1	0	tree_05s.jpg	0	0.0	0	164.334324500174	164.384305202635	0.0499807024607435	73714
73.814	50	590	0	0	hummus	812	281	1	stimuli\hummus\hummus_03s.jpg	2	-1	1	0	hummus_03s.jpg	0	0.0	0	164.434329547104	164.484309761901	0.0499802147969604	73814
73.914	50	591	0	0	sewing_machine	1407	282	1	stimuli\sewing_machine\sewing_machine_08s.jpg	7	-1	1	0	sewing_machine_08s.jpg	0	0.0	0	164.534332643379	164.584311883082	0.0499792397022247	73914
74.014	50	592	0	0	riser	1314	283	1	stimuli\riser\riser_09s.jpg	8	-1	1	0	riser_09s.jpg	0	0.0	0	164.63433573977102	164.684312785161	0.0499770453898236	74014
74.114	50	593	0	0	tape	1622	284	1	stimuli\tape\tape_02s.jpg	1	-1	1	0	tape_02s.jpg	1	0.0	0	164.734342249576	164.7843163691	0.0499741195235401	74114
74.214	50	594	0	0	sand	1351	285	1	stimuli\sand\sand_02s.jpg	1	-1	1	0	sand_02s.jpg	0	0.0	0	164.834338519257	164.884317758842	0.0499792395858094	74214
74.314	50	595	0	0	grasshopper	706	286	1	stimuli\grasshopper\grasshopper_09s.jpg	8	-1	1	0	grasshopper_09s.jpg	0	0.0	0	164.934344541281	164.984324024757	0.0499794834759086	74314
74.414	50	596	0	0	coffee_filter	379	287	1	stimuli\coffee_filter\coffee_filter_06s.jpg	5	-1	1	0	coffee_filter_06s.jpg	0	0.0	0	165.034348613	165.084326633485	0.0499780204845592	74414
74.514	50	597	0	0	pothole	1233	288	1	stimuli\pothole\pothole_07s.jpg	6	-1	1	0	pothole_07s.jpg	0	0.0	0	165.134348539752	165.184328510892	0.0499799711396918	74514
74.614	50	598	0	0	tortilla	1687	289	1	stimuli\tortilla\tortilla_04s.jpg	3	-1	1	0	tortilla_04s.jpg	0	0.0	0	165.234358462854	165.284329412971	0.0499709501164034	74614
74.714	50	599	0	0	quiche	1262	290	1	stimuli\quiche\quiche_06s.jpg	5	-1	1	0	quiche_06s.jpg	0	0.0	0	165.334350344026	165.384335678886	0.0499853348592296	74714
74.814	50	600	0	0	stirrup	1558	291	1	stimuli\stirrup\stirrup_09s.jpg	8	-1	1	0	stirrup_09s.jpg	0	0.0	0	165.434354903293	165.48433463042602	0.0499797271331772	74814
74.914	50	601	0	0	pinball	1178	292	1	stimuli\pinball\pinball_11s.jpg	10	-1	1	0	pinball_11s.jpg	0	0.0	0	165.534363363404	165.584335532621	0.0499721692176536	74914
75.014	50	602	0	0	iceskate	823	293	1	stimuli\iceskate\iceskate_05s.jpg	4	-1	1	0	iceskate_05s.jpg	0	0.0	0	165.634360608412	165.68433911656	0.0499785081483424	75014
75.114	50	603	0	0	washboard	1782	294	1	stimuli\washboard\washboard_03s.jpg	2	-1	1	0	washboard_03s.jpg	0	0.0	0	165.734364192351	165.78434538247498	0.0499811901245266	75114
75.214	50	604	0	0	typewriter	1741	295	1	stimuli\typewriter\typewriter_03s.jpg	2	-1	1	0	typewriter_03s.jpg	0	0.0	0	165.834366557305	165.884344577906	0.0499780206009746	75214
75.314	50	605	0	0	beaker	101	296	1	stimuli\beaker\beaker_03s.jpg	2	-1	1	0	beaker_03s.jpg	0	0.0	0	165.934367947048	165.98434986861	0.0499819215619937	75314
75.414	50	606	0	0	retainer	1303	297	1	stimuli\retainer\retainer_11s.jpg	10	-1	1	0	retainer_11s.jpg	0	0.0	0	166.034371774876	166.084350283025	0.0499785081483424	75414
75.514	50	607	0	0	popsicle	1225	298	1	stimuli\popsicle\popsicle_11s.jpg	10	-1	1	0	popsicle_11s.jpg	0	0.0	0	166.134372433182	166.184357768041	0.0499853348592296	75514
75.614	50	608	0	0	makeup	961	299	1	stimuli\makeup\makeup_01b.jpg	0	-1	1	0	makeup_01b.jpg	0	0.0	0	166.234376992332	166.28435623203399	0.0499792397022247	75614
75.714	50	609	0	0	shower_cap	1434	300	1	stimuli\shower_cap\shower_cap_05s.jpg	4	-1	1	0	shower_cap_05s.jpg	0	0.0	0	166.334380332613	166.384359572199	0.0499792395858094	75714
75.814	50	610	0	0	fan	571	301	1	stimuli\fan\fan_04s.jpg	3	-1	1	0	fan_04s.jpg	0	0.0	0	166.43438245367702	166.484362668591	0.0499802149133757	75814
75.914	50	611	0	0	wine_cooler	1825	302	1	stimuli\wine_cooler\wine_cooler_05s.jpg	4	-1	1	0	wine_cooler_05s.jpg	0	0.0	0	166.534384087194	166.58436454588102	0.0499804586870596	75914
76.014	50	612	0	0	paddle	1094	303	1	stimuli\paddle\paddle_04s.jpg	3	-1	1	0	paddle_04s.jpg	0	0.0	0	166.63439157221	166.684371787007	0.0499802147969604	76014
76.114	50	613	0	0	leech	909	304	1	stimuli\leech\leech_08s.jpg	7	-1	1	0	leech_08s.jpg	0	0.0	0	166.734398081899	166.78437585861	0.0499777767108753	76114
76.214	50	614	0	0	urn	1749	305	1	stimuli\urn\urn_11s.jpg	10	-1	1	0	urn_11s.jpg	0	0.0	0	166.834390450618	166.884373591281	0.0499831406632438	76214
76.314	50	615	0	0	robe	1317	306	1	stimuli\robe\robe_04s.jpg	3	-1	1	0	robe_04s.jpg	0	0.0	0	166.9343937909	166.984376200009	0.0499824091093615	76314
76.414	50	616	0	0	shell2	1418	307	1	stimuli\shell2\shell2_12s.jpg	11	-1	1	0	shell2_12s.jpg	0	0.0	0	167.03439835005	167.084378564963	0.0499802149133757	76414
