onset	duration	eventnumber	blocksequencenumber	isteststim	object	objectnumber	presentationnumber	sequencenumber	stim	stimnumber	teststimnumber	withinsequencenumber	istarget	stimname	response	rt	correct	time_stimon	time_stimoff	stimdur	sample
98.348	50	0	0	0	light_switch	926	0	0	stimuli\light_switch\light_switch_09s.jpg	8	-1	0	0	light_switch_09s.jpg	0	0.0	0	46.71753802441529	46.767499892623206	0.0499618682079017	98348
98.448	50	1	0	0	walker1	1773	1	0	stimuli\walker1\walker1_12s.jpg	11	-1	0	0	walker1_12s.jpg	0	0.0	0	46.817526614177	46.867518470971795	0.0499918567948043	98448
98.548	50	2	0	0	penholder	1146	2	0	stimuli\penholder\penholder_01b.jpg	0	-1	0	0	penholder_01b.jpg	0	0.0	0	46.91754153522199	46.9674973082729	0.0499557730508968	98548
98.648	50	3	0	0	vegetable	1754	3	0	stimuli\vegetable\vegetable_02s.jpg	1	-1	0	0	vegetable_02s.jpg	0	0.0	0	47.0175513364375	47.0675229569897	0.0499716205522418	98648
98.748	50	4	0	0	swing_set	1599	4	0	stimuli\swing_set\swing_set_02s.jpg	1	-1	0	0	swing_set_02s.jpg	0	0.0	0	47.117549434653505	47.16752641915811	0.0499769845046103	98748
98.848	50	5	0	0	machete	953	5	0	stimuli\machete\machete_09s.jpg	8	-1	0	0	machete_09s.jpg	0	0.0	0	47.2175531405956	47.2679421625799	0.0503890219843015	98848
98.948	50	6	0	0	lifesaver	925	6	0	stimuli\lifesaver\lifesaver_04s.jpg	3	-1	0	0	lifesaver_04s.jpg	0	0.0	0	47.317553433124	47.3675326118246	0.0499791787005961	98948
99.048	50	7	0	0	mushroom	1040	7	0	stimuli\mushroom\mushroom_03n.jpg	2	-1	0	0	mushroom_03n.jpg	0	0.0	0	47.417557139066	47.467524371109896	0.0499672320438549	99048
99.148	50	8	0	0	valve	1751	8	0	stimuli\valve\valve_04s.jpg	3	-1	0	0	valve_04s.jpg	0	0.0	0	47.51752768689771	47.5675066218246	0.0499789349269122	99148
99.248	50	9	0	0	plug	1202	9	0	stimuli\plug\plug_02s.jpg	1	-1	0	0	plug_02s.jpg	0	0.0	0	47.617529442301	47.6675098401029	0.0499803978018463	99248
99.348	50	10	0	0	column	388	10	0	stimuli\column\column_11s.jpg	10	-1	0	0	column_11s.jpg	0	0.0	0	47.717530710157	47.7675137898186	0.0499830796616152	99348
99.448	50	11	0	0	coffee_bean	378	11	0	stimuli\coffee_bean\coffee_bean_05s.jpg	4	-1	0	0	coffee_bean_05s.jpg	0	0.0	0	47.817536366521395	47.8675172518706	0.0499808853492141	99448
99.548	50	12	0	0	thermometer	1646	12	0	stimuli\thermometer\thermometer_01b.jpg	0	-1	0	0	thermometer_01b.jpg	0	0.0	0	47.9175698171603	47.9675489958609	0.0499791787005961	99548
99.648	50	13	0	0	nail_file	1048	13	0	stimuli\nail_file\nail_file_11s.jpg	10	-1	0	0	nail_file_11s.jpg	0	0.0	0	48.017567915492705	48.067550019826704	0.0499821043340489	99648
99.748	50	14	0	0	marijuana	974	14	0	stimuli\marijuana\marijuana_04s.jpg	3	-1	0	0	marijuana_04s.jpg	0	0.0	0	48.117572596529506	48.1675503123552	0.049977715825661996	99748
99.848	50	15	0	0	ravioli	1289	15	0	stimuli\ravioli\ravioli_06s.jpg	5	-1	0	0	ravioli_06s.jpg	0	0.0	0	48.217573132948	48.2675364640309	0.0499633310828358	99848
99.948	50	16	0	0	puppet	1257	16	0	stimuli\puppet\puppet_08s.jpg	7	-1	0	0	puppet_08s.jpg	0	0.0	0	48.317576595	48.3675543108257	0.049977715825661996	99948
100.048	50	17	0	0	tape_recorder	1624	17	0	stimuli\tape_recorder\tape_recorder_08s.jpg	7	-1	0	0	tape_recorder_08s.jpg	0	0.0	0	48.4175805447157	48.467535586329205	0.0499550416134298	100048
100.148	50	18	0	0	coffee_table	381	18	0	stimuli\coffee_table\coffee_table_08s.jpg	7	-1	0	0	coffee_table_08s.jpg	0	0.0	0	48.5175527993124	48.567533928435296	0.04998112912289799	100148
100.248	50	19	0	0	branch	192	19	0	stimuli\branch\branch_08s.jpg	7	-1	0	0	branch_08s.jpg	0	0.0	0	48.6175582117867	48.667542510549495	0.0499842987628654	100248
100.348	50	20	0	0	lemon	914	20	0	stimuli\lemon\lemon_02s.jpg	1	-1	0	0	lemon_02s.jpg	0	0.0	0	48.717563868151	48.7675357325934	0.049971864442340995	100348
100.448	50	21	0	0	fly	621	21	0	stimuli\fly\fly_04s.jpg	3	-1	0	0	fly_04s.jpg	0	0.0	0	48.81756221025721	48.8675413889578	0.0499791787005961	100448
100.548	50	22	0	0	cd_player	290	22	0	stimuli\cd_player\cd_player_02s.jpg	1	-1	0	0	cd_player_02s.jpg	0	0.0	0	48.9175985866459	48.96757337672171	0.0499747900757939	100548
100.648	50	23	0	0	bra	185	23	0	stimuli\bra\bra_04s.jpg	3	-1	0	0	bra_04s.jpg	0	0.0	0	49.0175779116107	49.06757196271789	0.0499940511072055	100648
100.748	50	24	0	0	pan	1103	24	0	stimuli\pan\pan_09s.jpg	8	-1	0	0	pan_09s.jpg	0	0.0	0	49.1175967337331	49.1675788380671	0.0499821043340489	100748
100.848	50	25	0	0	tie	1658	25	0	stimuli\tie\tie_10s.jpg	9	-1	0	0	tie_10s.jpg	0	0.0	0	49.2176009272225	49.2675786430482	0.049977715825661996	100848
100.948	50	26	0	0	wine	1823	26	0	stimuli\wine\wine_12s.jpg	11	-1	0	0	wine_12s.jpg	0	0.0	0	49.317599513102294	49.3675691832323	0.0499696701299399	100948
101.048	50	27	0	0	shield	1420	27	0	stimuli\shield\shield_05s.jpg	4	-1	0	0	shield_05s.jpg	0	0.0	0	49.4175800571684	49.46756045485379	0.0499803976854309	101048
101.148	50	28	0	0	reel	1299	28	0	stimuli\reel\reel_07s.jpg	6	-1	0	1	reel_07s.jpg	0	0.0	0	49.5175803496968	49.567562941694604	0.0499825919978321	101148
101.248	50	29	0	0	bassinet	85	29	0	stimuli\bassinet\bassinet_11s.jpg	10	-1	0	0	bassinet_11s.jpg	0	0.0	0	49.617584299412606	49.6675949294586	0.0500106300460175	101248
101.348	50	30	0	0	pomegranate	1219	30	0	stimuli\pomegranate\pomegranate_10n.jpg	9	-1	0	0	pomegranate_10n.jpg	0	0.0	0	49.71759117487821	49.767564989742795	0.0499738148646429	101348
101.448	50	31	0	0	hummingbird	811	31	0	stimuli\hummingbird\hummingbird_05s.jpg	4	-1	0	0	hummingbird_05s.jpg	0	0.0	0	49.81761243497021	49.8675930765457	0.0499806415755302	101448
101.548	50	32	0	0	lightbulb	927	32	0	stimuli\lightbulb\lightbulb_02s.jpg	1	-1	0	0	lightbulb_02s.jpg	1	0.39218440360855295	1	49.91761979798321	49.9675802034326	0.049960405449382995	101548
101.648	50	33	0	0	rudder	1339	33	0	stimuli\rudder\rudder_04s.jpg	3	-1	0	0	rudder_04s.jpg	0	0.0	0	50.0176027801353	50.0675987816649	0.0499960015295073	101648
101.748	50	34	0	0	spider	1513	34	0	stimuli\spider\spider_09n.jpg	8	-1	0	0	spider_09n.jpg	0	0.0	0	50.1176230651326	50.167604925693	0.049981860560364993	101748
101.848	50	35	0	0	quad	1260	35	0	stimuli\quad\quad_06s.jpg	5	-1	0	0	quad_06s.jpg	0	0.0	0	50.217628233833196	50.2676049744477	0.0499767406145111	101848
101.948	50	36	0	0	root	1331	36	0	stimuli\root\root_01b.jpg	0	-1	0	0	root_01b.jpg	0	0.0	0	50.3176046330482	50.367585762287504	0.0499811292393133	101948
102.048	50	37	0	0	chicken1	322	37	0	stimuli\chicken1\chicken1_05s.jpg	4	-1	0	0	chicken1_05s.jpg	0	0.0	0	50.4176322323037	50.4676079977071	0.0499757654033601	102048
102.148	50	38	0	0	rag	1276	38	0	stimuli\rag\rag_01b.jpg	0	-1	0	0	rag_01b.jpg	0	0.0	0	50.5176293553086	50.567599756876	0.04997040156740701	102148
102.248	50	39	0	0	apple	30	39	0	stimuli\apple\apple_03s.jpg	2	-1	0	0	apple_03s.jpg	0	0.0	0	50.6176198956091	50.6676168723498	0.0499969767406583	102248
102.348	50	40	0	0	trapdoor	1703	40	0	stimuli\trapdoor\trapdoor_02s.jpg	1	-1	0	0	trapdoor_02s.jpg	0	0.0	0	50.7176379861776	50.76761814008929	0.049980153911747004	102348
102.448	50	41	0	0	organ	1082	41	0	stimuli\organ\organ_12s.jpg	11	-1	0	0	organ_12s.jpg	0	0.0	0	50.81763949780721	50.867604291765005	0.0499647939577699	102448
102.548	50	42	0	0	birdbath	129	42	0	stimuli\birdbath\birdbath_10s.jpg	9	-1	0	0	birdbath_10s.jpg	0	0.0	0	50.91764320374929	50.9676231138874	0.0499799101380631	102548
102.648	50	43	0	0	berry	121	43	0	stimuli\berry\berry_08s.jpg	7	-1	0	0	berry_08s.jpg	0	0.0	0	51.0176439839415	51.0676231626421	0.0499791787005961	102648
102.748	50	44	0	0	barcode	73	44	0	stimuli\barcode\barcode_10s.jpg	9	-1	0	0	barcode_10s.jpg	0	0.0	0	51.1176381811965	51.167603950481904	0.0499657692853361	102748
102.848	50	45	0	0	comb	389	45	0	stimuli\comb\comb_08s.jpg	7	-1	0	0	comb_08s.jpg	0	0.0	0	51.2176226262236	51.267603023909	0.0499803976854309	102848
102.948	50	46	0	0	wedge	1801	46	0	stimuli\wedge\wedge_10s.jpg	9	-1	0	0	wedge_10s.jpg	0	0.0	0	51.3176253568381	51.367611606023296	0.0499862491851673	102948
103.048	50	47	0	0	dog	495	47	0	stimuli\dog\dog_10s.jpg	9	-1	0	0	dog_10s.jpg	0	0.0	0	51.4176514932187	51.4676323785679	0.0499808853492141	103048
103.148	50	48	0	0	possum	1228	48	0	stimuli\possum\possum_11s.jpg	10	-1	0	0	possum_11s.jpg	0	0.0	0	51.517654711497	51.5676365720574	0.049981860560364993	103148
103.249	50	49	0	0	ballot_box	61	49	0	stimuli\ballot_box\ballot_box_07s.jpg	6	-1	0	0	ballot_box_07s.jpg	0	0.0	0	51.6176642688224	51.66763954656201	0.049975277739577	103249
103.348	50	50	0	0	sweatsuit	1593	50	0	stimuli\sweatsuit\sweatsuit_09s.jpg	8	-1	0	0	sweatsuit_09s.jpg	0	0.0	0	51.7176621232647	51.767642033402794	0.0499799101380631	103348
103.448	50	51	0	0	lunchbox	950	51	0	stimuli\lunchbox\lunchbox_08s.jpg	7	-1	0	0	lunchbox_08s.jpg	0	0.0	0	51.817664122558206	51.8676301355008	0.0499660129426047	103448
103.549	50	52	0	0	gearshift	668	52	0	stimuli\gearshift\gearshift_06s.jpg	5	-1	0	0	gearshift_06s.jpg	0	0.0	0	51.917669047485106	51.9676462757634	0.0499772282782942	103549
103.649	50	53	0	0	laundry_basket	902	53	0	stimuli\laundry_basket\laundry_basket_03s.jpg	2	-1	0	0	laundry_basket_03s.jpg	0	0.0	0	52.0176710467786	52.0676497378154	0.049978691036812996	103649
103.748	50	54	0	0	poker	1210	54	0	stimuli\poker\poker_03s.jpg	2	-1	0	1	poker_03s.jpg	0	0.0	0	52.117626965977294	52.1676358894911	0.0500089235138148	103748
103.849	50	55	0	0	tugboat	1725	55	0	stimuli\tugboat\tugboat_10s.jpg	9	-1	0	0	tugboat_10s.jpg	0	0.0	0	52.217680408968604	52.267656662035705	0.0499762530671433	103849
103.949	50	56	0	0	cookie	400	56	0	stimuli\cookie\cookie_01b.jpg	0	-1	0	0	cookie_01b.jpg	0	0.0	0	52.3176787510747	52.3676613430725	0.0499825919978321	103949
104.049	50	57	0	0	nose	1063	57	0	stimuli\nose\nose_02s.jpg	1	-1	0	0	nose_02s.jpg	1	0.29222238913644105	1	52.41768611408771	52.467659929068795	0.0499738149810582	104049
104.149	50	58	0	0	denture	478	58	0	stimuli\denture\denture_08s.jpg	7	-1	0	0	denture_08s.jpg	0	0.0	0	52.5176795800216	52.5676624159096	0.0499828358879313	104149
104.249	50	59	0	0	rifle	1311	59	0	stimuli\rifle\rifle_09s.jpg	8	-1	0	0	rifle_09s.jpg	0	0.0	0	52.6176869430346	52.6676558818435	0.0499689388088882	104249
104.349	50	60	0	0	fishhook	602	60	0	stimuli\fishhook\fishhook_04s.jpg	3	-1	0	0	fishhook_04s.jpg	0	0.0	0	52.7176774833351	52.7676564181456	0.0499789348104969	104349
104.449	50	61	0	0	moth	1023	61	0	stimuli\moth\moth_02n.jpg	1	-1	0	0	moth_02n.jpg	0	0.0	0	52.817678019637206	52.8676623184001	0.0499842987628654	104449
104.549	50	62	0	0	aircraft_carrier	9	62	0	stimuli\aircraft_carrier\aircraft_carrier_11s.jpg	10	-1	0	0	aircraft_carrier_11s.jpg	0	0.0	0	52.9176844074391	52.967664561350794	0.049980153911747004	104549
104.649	50	63	0	0	sandpaper	1356	63	0	stimuli\sandpaper\sandpaper_04s.jpg	3	-1	0	0	sandpaper_04s.jpg	0	0.0	0	53.017683968646494	53.067664366331904	0.0499803976854309	104649
104.749	50	64	0	0	bow1	174	64	0	stimuli\bow1\bow1_07s.jpg	6	-1	0	0	bow1_07s.jpg	0	0.0	0	53.11768791836221	53.16767002269629	0.0499821043340489	104749
104.849	50	65	0	0	lipstick	936	65	0	stimuli\lipstick\lipstick_07s.jpg	6	-1	0	0	lipstick_07s.jpg	0	0.0	0	53.2176916241879	53.2676705591148	0.0499789349269122	104849
104.949	50	66	0	0	ruler	1341	66	0	stimuli\ruler\ruler_12s.jpg	11	-1	0	0	ruler_12s.jpg	0	0.0	0	53.31769216060639	53.3676808478776	0.0499886872712523	104949
105.049	50	67	0	0	face	569	67	0	stimuli\face\face_10s.jpg	9	-1	0	0	face_10s.jpg	0	0.0	0	53.4176846513292	53.467659441405	0.0499747900757939	105049
105.149	50	68	0	0	ironing_board	833	68	0	stimuli\ironing_board\ironing_board_04s.jpg	3	-1	0	0	ironing_board_04s.jpg	0	0.0	0	53.5176805552328	53.5676638787845	0.0499833235517144	105149
105.249	50	69	0	0	pea	1128	69	0	stimuli\pea\pea_06s.jpg	5	-1	0	0	pea_06s.jpg	0	0.0	0	53.61768304219	53.667665877961596	0.049982835771516	105249
105.349	50	70	0	0	truck	1720	70	0	stimuli\truck\truck_04n.jpg	3	-1	0	0	truck_04n.jpg	0	0.0	0	53.717685041367105	53.7676654391689	0.0499803978018463	105349
105.449	50	71	0	0	bottle	170	71	0	stimuli\bottle\bottle_08s.jpg	7	-1	0	0	bottle_08s.jpg	0	0.0	0	53.81768947874661	53.8676679260097	0.0499784472631291	105449
105.549	50	72	0	0	skateboard	1449	72	0	stimuli\skateboard\skateboard_05s.jpg	4	-1	0	0	skateboard_05s.jpg	0	0.0	0	53.91768977127499	53.9676682185382	0.0499784472631291	105549
105.649	50	73	0	0	drill	520	73	0	stimuli\drill\drill_08s.jpg	7	-1	0	0	drill_08s.jpg	0	0.0	0	54.0177234656876	54.0677041072631	0.0499806415755302	105649
105.749	50	74	0	0	fruit	645	74	0	stimuli\fruit\fruit_04s.jpg	3	-1	0	0	fruit_04s.jpg	0	0.0	0	54.117729609715795	54.167707813205205	0.0499782034894451	105749
105.849	50	75	0	0	stick	1552	75	0	stimuli\stick\stick_06s.jpg	5	-1	0	0	stick_06s.jpg	0	0.0	0	54.217735266080105	54.267708105733604	0.049972839653492	105849
105.949	50	76	0	0	daisy	470	76	0	stimuli\daisy\daisy_11s.jpg	10	-1	0	0	daisy_11s.jpg	0	0.0	0	54.317730926210096	54.3676993773552	0.0499684511451051	105949
106.049	50	77	0	0	napkin	1050	77	0	stimuli\napkin\napkin_09s.jpg	8	-1	0	0	napkin_09s.jpg	0	0.0	0	54.417737314011895	54.4677004013211	0.0499630873091519	106049
106.149	50	78	0	0	fire_alarm	591	78	0	stimuli\fire_alarm\fire_alarm_08s.jpg	7	-1	0	0	fire_alarm_08s.jpg	0	0.0	0	54.5177237094613	54.567717760568506	0.0499940511072055	106149
106.249	50	79	0	0	balloon	60	79	0	stimuli\balloon\balloon_06s.jpg	5	-1	0	0	balloon_06s.jpg	0	0.0	0	54.6177383868489	54.667721954057896	0.049983567208983004	106249
106.349	50	80	0	0	block	143	80	0	stimuli\block\block_06s.jpg	5	-1	0	0	block_06s.jpg	0	0.0	0	54.717740386026	54.7677232219139	0.0499828358879313	106349
106.449	50	81	0	0	pepperoni	1153	81	0	stimuli\pepperoni\pepperoni_04s.jpg	3	-1	0	0	pepperoni_04s.jpg	0	0.0	0	54.817741653881995	54.867726683965905	0.0499850300839171	106449
106.549	50	82	0	0	straw2	1569	82	0	stimuli\straw2\straw2_07s.jpg	6	-1	0	0	straw2_07s.jpg	0	0.0	0	54.9177482854575	54.96771039755551	0.0499621120980009	106549
106.649	50	83	0	0	bungee	221	83	0	stimuli\bungee\bungee_06s.jpg	5	-1	0	0	bungee_06s.jpg	0	0.0	0	55.017715419991895	55.067693867255	0.0499784472631291	106649
106.749	50	84	0	0	ice_pack	820	84	0	stimuli\ice_pack\ice_pack_06s.jpg	5	-1	0	0	ice_pack_06s.jpg	0	0.0	0	55.1177454573335	55.1677158589009	0.04997040156740701	106749
106.849	50	85	0	0	bun	220	85	0	stimuli\bun\bun_06s.jpg	5	-1	0	0	bun_06s.jpg	0	0.0	0	55.2177550146589	55.2677351685707	0.049980153911747004	106849
106.949	50	86	0	0	turkey	1733	86	0	stimuli\turkey\turkey_08s.jpg	7	-1	0	0	turkey_08s.jpg	0	0.0	0	55.317755550960996	55.3677400934976	0.0499845425365493	106949
107.049	50	87	0	0	fireplace	595	87	0	stimuli\fireplace\fireplace_03s.jpg	2	-1	0	0	fireplace_03s.jpg	0	0.0	0	55.417787538725	55.467744286987	0.0499567482620478	107049
107.149	50	88	0	0	hood	791	88	0	stimuli\hood\hood_09s.jpg	8	-1	0	0	hood_09s.jpg	0	0.0	0	55.5177544294856	55.567738484358394	0.0499840548727661	107149
107.249	50	89	0	0	blanket	136	89	0	stimuli\blanket\blanket_10s.jpg	9	-1	0	0	blanket_10s.jpg	0	0.0	0	55.617744482005904	55.667721710284205	0.0499772282782942	107249
107.349	50	90	0	0	aquarium	34	90	0	stimuli\aquarium\aquarium_12s.jpg	11	-1	0	0	aquarium_12s.jpg	0	0.0	0	55.717733071767704	55.7677419951651	0.0500089233973995	107349
107.449	50	91	0	0	turntable	1735	91	0	stimuli\turntable\turntable_07s.jpg	6	-1	0	0	turntable_07s.jpg	0	0.0	0	55.817764328094206	55.867745701107204	0.0499813730129972	107449
107.549	50	92	0	0	seesaw	1402	92	0	stimuli\seesaw\seesaw_06s.jpg	5	-1	0	0	seesaw_06s.jpg	0	0.0	0	55.9177648645127	55.9677472127369	0.0499823482241482	107549
107.649	50	93	0	0	abacus	1	93	0	stimuli\abacus\abacus_04s.jpg	3	-1	0	0	abacus_04s.jpg	0	0.0	0	56.0177685704548	56.06773360818621	0.0499650377314538	107649
107.749	50	94	0	0	cream_cheese	437	94	0	stimuli\cream_cheese\cream_cheese_04s.jpg	3	-1	0	0	cream_cheese_04s.jpg	0	0.0	0	56.1177749582566	56.167752186418504	0.0499772281618789	107749
107.849	50	95	0	0	cracker	429	95	0	stimuli\cracker\cracker_08s.jpg	7	-1	0	0	cracker_08s.jpg	0	0.0	0	56.217756721307495	56.267740044742794	0.0499833234352991	107849
107.949	50	96	0	0	beaver	107	96	0	stimuli\beaver\beaver_02s.jpg	1	-1	0	0	beaver_02s.jpg	0	0.0	0	56.3177755433135	56.36775594111529	0.0499803978018463	107949
108.049	50	97	0	0	mallet	962	97	0	stimuli\mallet\mallet_04s.jpg	3	-1	0	0	mallet_04s.jpg	0	0.0	0	56.4177785178181	56.46775940316729	0.0499808853492141	108049
108.149	50	98	0	0	headscarf	768	98	0	stimuli\headscarf\headscarf_03s.jpg	2	-1	0	0	headscarf_03s.jpg	0	0.0	0	56.5177853932837	56.5677496995777	0.0499643062939867	108149
108.249	50	99	0	0	skewer	1451	99	0	stimuli\skewer\skewer_07s.jpg	6	-1	0	0	skewer_07s.jpg	0	0.0	0	56.6177856858121	56.667771934997305	0.0499862491851673	108249
108.349	50	100	0	0	humvee	813	100	0	stimuli\humvee\humvee_09s.jpg	8	-1	0	0	humvee_09s.jpg	0	0.0	0	56.717787684989204	56.767767351353505	0.0499796663643792	108349
108.449	50	101	0	0	jumpsuit	859	101	0	stimuli\jumpsuit\jumpsuit_12s.jpg	11	-1	0	0	jumpsuit_12s.jpg	0	0.0	0	56.8177884651814	56.8677710572956	0.0499825921142474	108449
108.549	50	102	0	0	blueberry	149	102	0	stimuli\blueberry\blueberry_08s.jpg	7	-1	0	0	blueberry_08s.jpg	0	0.0	0	56.917771934997305	56.9677511136979	0.0499791787005961	108549
108.649	50	103	0	0	petri_dish	1159	103	0	stimuli\petri_dish\petri_dish_09s.jpg	8	-1	0	0	petri_dish_09s.jpg	0	0.0	0	57.017767351353505	57.067747749155394	0.0499803978018463	108649
108.749	50	104	0	0	wrapping_paper	1838	104	0	stimuli\wrapping_paper\wrapping_paper_12s.jpg	11	-1	0	0	wrapping_paper_12s.jpg	0	0.0	0	57.1177698381944	57.1677519426448	0.0499821044504642	108749
108.849	50	105	0	0	coral	406	105	0	stimuli\coral\coral_01b.jpg	0	-1	0	0	coral_01b.jpg	0	0.0	0	57.217771349824	57.2677502847509	0.0499789349269122	108849
108.949	50	106	0	0	sweeper	1594	106	0	stimuli\sweeper\sweeper_01b.jpg	0	-1	0	0	sweeper_01b.jpg	0	0.0	0	57.3177733491175	57.36778471060099	0.0500113614834845	108949
109.049	50	107	0	0	scooter	1382	107	0	stimuli\scooter\scooter_12s.jpg	11	-1	0	0	scooter_12s.jpg	0	0.0	0	57.417808262514896	57.467784515582	0.0499762530671433	109049
109.149	50	108	0	0	elbow	552	108	0	stimuli\elbow\elbow_05s.jpg	4	-1	0	0	elbow_05s.jpg	0	0.0	0	57.517791244666995	57.567787977634	0.0499967329669744	109149
109.249	50	109	0	0	golf_cart	689	109	0	stimuli\golf_cart\golf_cart_02s.jpg	1	-1	0	0	golf_cart_02s.jpg	0	0.0	0	57.61780933535189	57.667789733037395	0.0499803976854309	109249
109.349	50	110	0	0	bowler_hat	178	110	0	stimuli\bowler_hat\bowler_hat_11s.jpg	10	-1	0	0	bowler_hat_11s.jpg	0	0.0	0	57.717807921231696	57.767786612268495	0.049978691036812996	109349
109.449	50	111	0	0	fountain_pen	637	111	0	stimuli\fountain_pen\fountain_pen_10s.jpg	9	-1	0	0	fountain_pen_10s.jpg	0	0.0	0	57.81781113951	57.8677922686329	0.04998112912289799	109449
109.549	50	112	0	0	glue	681	112	0	stimuli\glue\glue_02s.jpg	1	-1	0	0	glue_02s.jpg	0	0.0	0	57.9178175273119	57.9677947554737	0.0499772281618789	109549
109.649	50	113	0	0	apple_tree	31	113	0	stimuli\apple_tree\apple_tree_06s.jpg	5	-1	0	0	apple_tree_06s.jpg	0	0.0	0	58.0178190389415	58.0677952918923	0.0499762529507279	109649
109.749	50	114	0	0	jam	839	114	0	stimuli\jam\jam_04s.jpg	3	-1	0	0	jam_04s.jpg	0	0.0	0	58.117802996304796	58.1677782740444	0.049975277739577	109749
109.849	50	115	0	0	walnut	1778	115	0	stimuli\walnut\walnut_08n.jpg	7	-1	0	0	walnut_08n.jpg	0	0.0	0	58.2177969497861	58.2677771036979	0.049980153911747004	109849
109.949	50	116	0	0	calf1	241	116	0	stimuli\calf1\calf1_06s.jpg	5	-1	0	0	calf1_06s.jpg	0	0.0	0	58.3177996804006	58.367806897265794	0.0500072168651968	109949
110.049	50	117	0	0	carousel	275	117	0	stimuli\carousel\carousel_10s.jpg	9	-1	0	1	carousel_10s.jpg	0	0.0	0	58.417829961516	58.4677967060125	0.0499667444964871	110049
110.149	50	118	0	0	donkey	504	118	0	stimuli\donkey\donkey_06s.jpg	5	-1	0	0	donkey_06s.jpg	0	0.0	0	58.51782879128589	58.5678118709475	0.0499830796616152	110149
110.249	50	119	0	0	sink	1447	119	0	stimuli\sink\sink_05s.jpg	4	-1	0	0	sink_05s.jpg	0	0.0	0	58.617835179087706	58.667796072084506	0.0499608929967508	110249
110.349	50	120	0	0	brussels_sprouts	206	120	0	stimuli\brussels_sprouts\brussels_sprouts_03s.jpg	2	-1	0	0	brussels_sprouts_03s.jpg	1	0.358020639978349	1	58.717808408779106	58.76779392652679	0.0499855177477002	110349
110.449	50	121	0	0	ankle	22	121	0	stimuli\ankle\ankle_09s.jpg	8	-1	0	0	ankle_09s.jpg	0	0.0	0	58.8178140651435	58.8677942191716	0.0499801540281624	110449
110.549	50	122	0	0	bib	122	122	0	stimuli\bib\bib_03s.jpg	2	-1	0	0	bib_03s.jpg	0	0.0	0	58.917847028234995	58.9678235249594	0.0499764967244118	110549
110.649	50	123	0	0	macaroni	952	123	0	stimuli\macaroni\macaroni_01b.jpg	0	-1	0	0	macaroni_01b.jpg	0	0.0	0	59.017845857888496	59.067825280479205	0.0499794225906953	110649
110.749	50	124	0	0	teabag	1632	124	0	stimuli\teabag\teabag_02s.jpg	1	-1	0	0	teabag_02s.jpg	0	0.0	0	59.117849076166706	59.1678287425311	0.0499796663643792	110749
110.849	50	125	0	0	metronome	997	125	0	stimuli\metronome\metronome_09s.jpg	8	-1	0	0	metronome_09s.jpg	0	0.0	0	59.217851319233894	59.2678173322929	0.049966013059019994	110849
110.949	50	126	0	0	clothespin	363	126	0	stimuli\clothespin\clothespin_03s.jpg	2	-1	0	0	clothespin_03s.jpg	0	0.0	0	59.3178564880509	59.367839080048704	0.0499825919978321	110949
111.049	50	127	0	0	seahorse	1396	127	0	stimuli\seahorse\seahorse_09s.jpg	8	-1	0	0	seahorse_09s.jpg	0	0.0	0	59.4178550739307	59.4678174298024	0.0499623558716848	111049
111.149	50	128	0	0	penguin	1145	128	0	stimuli\penguin\penguin_10s.jpg	9	-1	0	0	penguin_10s.jpg	0	0.0	0	59.517856341670296	59.567835764261	0.0499794225906953	111149
111.249	50	129	0	0	coin	385	129	0	stimuli\coin\coin_10s.jpg	9	-1	0	0	coin_10s.jpg	0	0.0	0	59.6178600476123	59.667820940609104	0.0499608929967508	111249
111.349	50	130	0	0	lens	916	130	0	stimuli\lens\lens_10s.jpg	9	-1	0	0	lens_10s.jpg	0	0.0	0	59.7178362030536	59.767818063613994	0.049981860560364993	111349
111.449	50	131	0	0	mussel	1042	131	0	stimuli\mussel\mussel_08s.jpg	7	-1	0	0	mussel_08s.jpg	0	0.0	0	59.8178386898944	59.867821769555995	0.0499830796616152	111449
111.549	50	132	0	0	combination_lock	390	132	0	stimuli\combination_lock\combination_lock_08s.jpg	7	-1	0	0	combination_lock_08s.jpg	0	0.0	0	59.91784483392261	59.9678220620845	0.0499772281618789	111549
111.649	50	133	0	0	souffle	1498	133	0	stimuli\souffle\souffle_10s.jpg	9	-1	0	0	souffle_10s.jpg	0	0.0	0	60.01784415123979	60.067818209994606	0.0499740587547421	111649
111.749	50	134	0	0	stuffing	1575	134	0	stimuli\stuffing\stuffing_06s.jpg	5	-1	0	0	stuffing_06s.jpg	0	0.0	0	60.117847369518095	60.16782776731999	0.0499803978018463	111749
111.849	50	135	0	0	car_door	268	135	0	stimuli\car_door\car_door_01b.jpg	0	-1	0	0	car_door_01b.jpg	0	0.0	0	60.2178347401787	60.267854147474296	0.0500194072956219	111849
111.949	50	136	0	0	jump_rope	858	136	0	stimuli\jump_rope\jump_rope_02s.jpg	1	-1	0	0	jump_rope_02s.jpg	0	0.0	0	60.3178774556145	60.367857853299896	0.0499803976854309	111949
112.049	50	137	0	0	robot	1318	137	0	stimuli\robot\robot_01b.jpg	0	-1	0	0	robot_01b.jpg	0	0.0	0	60.417880673892796	60.467860584030895	0.0499799101380631	112049
112.149	50	138	0	0	hole	785	138	0	stimuli\hole\hole_01b.jpg	0	-1	0	0	hole_01b.jpg	0	0.0	0	60.51788242929621	60.5678474670276	0.0499650377314538	112149
112.249	50	139	0	0	cake_mix	238	139	0	stimuli\cake_mix\cake_mix_11s.jpg	10	-1	0	0	cake_mix_11s.jpg	0	0.0	0	60.61788540380079	60.667866532923696	0.04998112912289799	112249
112.349	50	140	0	0	hovercraft	808	140	0	stimuli\hovercraft\hovercraft_04s.jpg	3	-1	0	0	hovercraft_04s.jpg	0	0.0	0	60.717869848711395	60.7678546350216	0.0499847863102332	112349
112.449	50	141	0	0	kaleidoscope	861	141	0	stimuli\kaleidoscope\kaleidoscope_08s.jpg	7	-1	0	0	kaleidoscope_08s.jpg	0	0.0	0	60.817889646044904	60.867876139003805	0.0499864929588512	112449
112.549	50	142	0	0	crayon	435	142	0	stimuli\crayon\crayon_06s.jpg	5	-1	0	0	crayon_06s.jpg	0	0.0	0	60.917898228159196	60.9678722867975	0.0499740586383268	112549
112.649	50	143	0	0	aardvark	0	143	0	stimuli\aardvark\aardvark_09s.jpg	8	-1	0	0	aardvark_09s.jpg	0	0.0	0	61.0178946197266	61.067874286091005	0.0499796663643792	112649
112.749	50	144	0	0	underwear	1745	144	0	stimuli\underwear\underwear_09s.jpg	8	-1	0	0	underwear_09s.jpg	0	0.0	0	61.1178985694423	61.167863119626396	0.049964550184086	112749
112.849	50	145	0	0	test_tube	1645	145	0	stimuli\test_tube\test_tube_11s.jpg	10	-1	0	0	test_tube_11s.jpg	0	0.0	0	61.2178983744234	61.2678804788738	0.0499821044504642	112849
112.949	50	146	0	0	pole	1213	146	0	stimuli\pole\pole_09s.jpg	8	-1	0	0	pole_09s.jpg	0	0.0	0	61.31789184035729	61.3678856475744	0.0499938072171062	112949
113.049	50	147	0	0	flypaper	622	147	0	stimuli\flypaper\flypaper_05s.jpg	4	-1	0	0	flypaper_05s.jpg	0	0.0	0	61.417907736729795	61.467868385836496	0.0499606491066515	113049
113.149	50	148	0	0	arugula	40	148	0	stimuli\arugula\arugula_02s.jpg	1	-1	0	0	arugula_02s.jpg	0	0.0	0	61.5179075415945	61.5678725794423	0.0499650378478691	113149
113.249	50	149	0	0	crane	431	149	0	stimuli\crane\crane_06s.jpg	5	-1	0	0	crane_06s.jpg	0	0.0	0	61.617908078013	61.667889451026	0.0499813730129972	113249
113.349	50	150	0	0	coffin	383	150	0	stimuli\coffin\coffin_08s.jpg	7	-1	0	0	coffin_08s.jpg	0	0.0	0	61.71791105251761	61.767890962655706	0.0499799101380631	113349
113.449	50	151	0	0	hourglass	807	151	0	stimuli\hourglass\hourglass_05s.jpg	4	-1	0	0	hourglass_05s.jpg	0	0.0	0	61.817909882171094	61.867900519981	0.0499906378099695	113449
113.549	50	152	0	0	potholder	1232	152	0	stimuli\potholder\potholder_06s.jpg	5	-1	0	0	potholder_06s.jpg	0	0.0	0	61.9179143195506	61.9678956925636	0.0499813730129972	113549
113.649	50	153	0	0	riser	1314	153	0	stimuli\riser\riser_11s.jpg	10	-1	0	0	riser_11s.jpg	0	0.0	0	62.0179143683054	62.067895741318395	0.0499813730129972	113649
113.749	50	154	0	0	pine_tree	1181	154	0	stimuli\pine_tree\pine_tree_04s.jpg	3	-1	0	0	pine_tree_04s.jpg	0	0.0	0	62.1179010075284	62.1678738471819	0.049972839653492	113749
113.849	50	155	0	0	brush	205	155	0	stimuli\brush\brush_10s.jpg	9	-1	0	0	brush_10s.jpg	0	0.0	0	62.217907882994005	62.2679051035084	0.0499972205143422	113849
113.949	50	156	0	0	bassoon	86	156	0	stimuli\bassoon\bassoon_11s.jpg	10	-1	0	0	bassoon_11s.jpg	0	0.0	0	62.317930605960996	62.3679092971142	0.0499786911532283	113949
114.049	50	157	0	0	chainsaw	299	157	0	stimuli\chainsaw\chainsaw_11s.jpg	10	-1	0	0	chainsaw_11s.jpg	0	0.0	0	62.4179138318868	62.467888378188896	0.049974546302110005	114049
114.149	50	158	0	0	cream	436	158	0	stimuli\cream\cream_07s.jpg	6	-1	0	0	cream_07s.jpg	0	0.0	0	62.5179036407499	62.5678923279047	0.04998868715483701	114149
114.249	50	159	0	0	lavender	904	159	0	stimuli\lavender\lavender_04s.jpg	3	-1	0	0	lavender_04s.jpg	0	0.0	0	62.617939041811	62.6679150509881	0.049976009177044006	114249
114.349	50	160	0	0	duct_tape	528	160	0	stimuli\duct_tape\duct_tape_07s.jpg	6	-1	0	0	duct_tape_07s.jpg	0	0.0	0	62.717910564853796	62.7678938882891	0.0499833234352991	114349
114.449	50	161	0	0	ambulance	19	161	0	stimuli\ambulance\ambulance_07s.jpg	6	-1	0	0	ambulance_07s.jpg	0	0.0	0	62.81791597744449	62.867896619019994	0.0499806415755302	114449
114.549	50	162	0	0	sundae	1582	162	0	stimuli\sundae\sundae_08s.jpg	7	-1	0	0	sundae_08s.jpg	0	0.0	0	62.91791602619921	62.967892766813705	0.0499767406145111	114549
114.649	50	163	0	0	pug	1249	163	0	stimuli\pug\pug_07s.jpg	6	-1	0	0	pug_07s.jpg	0	0.0	0	63.0179155874066	63.0679262174526	0.0500106300460175	114649
114.749	50	164	0	0	ginger	673	164	0	stimuli\ginger\ginger_03s.jpg	2	-1	0	0	ginger_03s.jpg	0	0.0	0	63.117927826591796	63.167906030081205	0.0499782034894451	114749
114.849	50	165	0	0	flagpole	606	165	0	stimuli\flagpole\flagpole_04s.jpg	3	-1	0	0	flagpole_04s.jpg	0	0.0	0	63.2179225115106	63.2678985206876	0.049976009177044006	114849
114.949	50	166	0	0	honeypot	790	166	0	stimuli\honeypot\honeypot_03s.jpg	2	-1	0	0	honeypot_03s.jpg	0	0.0	0	63.3179220727179	63.3679049084894	0.049982835771516	114949
115.049	50	167	0	0	boa	150	167	0	stimuli\boa\boa_11s.jpg	10	-1	0	0	boa_11s.jpg	0	0.0	0	63.4179269976448	63.46791007730639	0.0499830796616152	115049
115.149	50	168	0	0	board	152	168	0	stimuli\board\board_08s.jpg	7	-1	0	1	board_08s.jpg	0	0.0	0	63.517932166345396	63.5679125641473	0.0499803978018463	115149
115.249	50	169	0	0	boy	184	169	0	stimuli\boy\boy_06s.jpg	5	-1	0	0	boy_06s.jpg	0	0.0	0	63.61793416563889	63.6679150509881	0.0499808853492141	115249
115.349	50	170	0	0	coyote	427	170	0	stimuli\coyote\coyote_11s.jpg	10	-1	0	0	coyote_11s.jpg	1	0.258926586131565	1	63.71793665247971	63.767922901664896	0.0499862491851673	115349
115.449	50	171	0	0	place_mat	1193	171	0	stimuli\place_mat\place_mat_10s.jpg	9	-1	0	0	place_mat_10s.jpg	0	0.0	0	63.8179469412426	63.8679183180211	0.0499713767785579	115449
115.549	50	172	0	0	retainer	1303	172	0	stimuli\retainer\retainer_11s.jpg	10	-1	0	0	retainer_11s.jpg	0	0.0	0	63.9179438204737	63.9679225115106	0.049978691036812996	115549
115.649	50	173	0	0	doghouse	497	173	0	stimuli\doghouse\doghouse_07s.jpg	6	-1	0	0	doghouse_07s.jpg	0	0.0	0	64.01793850539251	64.0679542555008	0.0500157501082867	115649
115.749	50	174	0	0	twig	1740	174	0	stimuli\twig\twig_09s.jpg	8	-1	0	0	twig_09s.jpg	0	0.0	0	64.1179424551083	64.1679282166297	0.0499857615213841	115749
115.849	50	175	0	0	potato	1231	175	0	stimuli\potato\potato_01b.jpg	0	-1	0	0	potato_01b.jpg	0	0.0	0	64.2179488429101	64.2679258272983	0.049976984388195	115849
115.949	50	176	0	0	harp	755	176	0	stimuli\harp\harp_02s.jpg	1	-1	0	0	harp_02s.jpg	0	0.0	0	64.3179618135327	64.3679317275528	0.0499699140200391	115949
116.049	50	177	0	0	hay	761	177	0	stimuli\hay\hay_04s.jpg	3	-1	0	0	hay_04s.jpg	0	0.0	0	64.4179569861153	64.4679329952924	0.049976009177044006	116049
116.149	50	178	0	0	radish	1274	178	0	stimuli\radish\radish_04n.jpg	3	-1	0	0	radish_04n.jpg	0	0.0	0	64.5179845853709	64.5679459660314	0.0499613806605339	116149
116.249	50	179	0	0	lighter	928	179	0	stimuli\lighter\lighter_10s.jpg	9	-1	0	0	lighter_10s.jpg	0	0.0	0	64.617989022634	64.6679669823498	0.0499779597157612	116249
116.349	50	180	0	0	cannon	260	180	0	stimuli\cannon\cannon_08s.jpg	7	-1	0	0	cannon_08s.jpg	0	0.0	0	64.71797102957501	64.7679533777991	0.0499823482241482	116349
116.449	50	181	0	0	yacht	1844	181	0	stimuli\yacht\yacht_02s.jpg	1	-1	0	0	yacht_02s.jpg	0	0.0	0	64.81799228966699	64.8679548894288	0.0499625997617841	116449
116.549	50	182	0	0	meatloaf	990	182	0	stimuli\meatloaf\meatloaf_05s.jpg	4	-1	0	0	meatloaf_05s.jpg	0	0.0	0	64.9179940451868	64.9679761495208	0.0499821043340489	116549
116.649	50	183	0	0	pillow	1176	183	0	stimuli\pillow\pillow_11s.jpg	10	-1	0	0	pillow_11s.jpg	0	0.0	0	65.0179953129264	65.0679779049242	0.0499825919978321	116649
116.749	50	184	0	0	carrot	277	184	0	stimuli\carrot\carrot_03s.jpg	2	-1	0	0	carrot_03s.jpg	0	0.0	0	65.1180056016892	65.1679789290065	0.0499733273172751	116749
116.849	50	185	0	0	tortilla	1687	185	0	stimuli\tortilla\tortilla_10s.jpg	9	-1	0	0	tortilla_10s.jpg	0	0.0	0	65.2180015057093	65.26796337391721	0.0499618682079017	116849
116.949	50	186	0	0	cocktail	374	186	0	stimuli\cocktail\cocktail_06s.jpg	5	-1	0	0	cocktail_06s.jpg	0	0.0	0	65.31800082302651	65.3679892665241	0.0499884434975684	116949
117.049	50	187	0	0	raspberry	1284	187	0	stimuli\raspberry\raspberry_07s.jpg	6	-1	0	0	raspberry_07s.jpg	0	0.0	0	65.4180052604061	65.467986389529	0.04998112912289799	117049
117.149	50	188	0	0	cheetah	315	188	0	stimuli\cheetah\cheetah_05s.jpg	4	-1	0	0	cheetah_05s.jpg	0	0.0	0	65.5180082347943	65.5679942402057	0.0499860054114833	117149
117.249	50	189	0	0	fossil	636	189	0	stimuli\fossil\fossil_05s.jpg	4	-1	0	0	fossil_05s.jpg	0	0.0	0	65.6179892665241	65.66796356905249	0.0499743025284261	117249
117.349	50	190	0	0	cutting_board	467	190	0	stimuli\cutting_board\cutting_board_01b.jpg	0	-1	0	0	cutting_board_01b.jpg	0	0.0	0	65.7180058943341	65.7679875111207	0.0499816167866811	117349
117.449	50	191	0	0	pulley	1250	191	0	stimuli\pulley\pulley_01b.jpg	0	-1	0	0	pulley_01b.jpg	0	0.0	0	65.8180069182999	65.867989022634	0.0499821043340489	117449
117.549	50	192	0	0	doorknocker	510	192	0	stimuli\doorknocker\doorknocker_05s.jpg	4	-1	0	0	doorknocker_05s.jpg	0	0.0	0	65.9180111117894	65.9679876086302	0.0499764968408272	117549
117.649	50	193	0	0	snowshoe	1485	193	0	stimuli\snowshoe\snowshoe_02s.jpg	1	-1	0	0	snowshoe_02s.jpg	0	0.0	0	66.01801262341911	66.067990095471	0.0499774720519781	117649
117.749	50	194	0	0	xylophone	1843	194	0	stimuli\xylophone\xylophone_11s.jpg	10	-1	0	0	xylophone_11s.jpg	0	0.0	0	66.118017548346	66.1679940451868	0.0499764968408272	117749
117.849	50	195	0	0	chicken_wire	324	195	0	stimuli\chicken_wire\chicken_wire_10s.jpg	9	-1	0	0	chicken_wire_10s.jpg	0	0.0	0	66.2180207666242	66.2679975072388	0.0499767406145111	117849
117.949	50	196	0	0	spider_web	1514	196	0	stimuli\spider_web\spider_web_03s.jpg	2	-1	0	0	spider_web_03s.jpg	0	0.0	0	66.3180191087304	66.3680075522279	0.0499884434975684	117949
118.049	50	197	0	0	rattlesnake	1288	197	0	stimuli\rattlesnake\rattlesnake_06s.jpg	5	-1	0	0	rattlesnake_06s.jpg	0	0.0	0	66.41801891371139	66.4680024809204	0.049983567208983004	118049
118.149	50	198	0	0	pearl	1134	198	0	stimuli\pearl\pearl_07s.jpg	6	-1	0	0	pearl_07s.jpg	0	0.0	0	66.5180243263021	66.56800618686249	0.049981860560364993	118149
118.249	50	199	0	0	cookie_sheet	402	199	0	stimuli\cookie_sheet\cookie_sheet_12s.jpg	11	-1	0	0	cookie_sheet_12s.jpg	0	0.0	0	66.61802656925279	66.6680125746643	0.0499860054114833	118249
118.349	50	200	0	0	sewing_kit	1406	200	0	stimuli\sewing_kit\sewing_kit_01b.jpg	0	-1	0	0	sewing_kit_01b.jpg	0	0.0	0	66.7180266180076	66.7680094538955	0.0499828358879313	118349
118.449	50	201	0	0	hookah	795	201	0	stimuli\hookah\hookah_12s.jpg	11	-1	0	0	hookah_12s.jpg	0	0.0	0	66.81803154305089	66.86801511025989	0.049983567208983004	118449
118.549	50	202	0	0	meat_grinder	988	202	0	stimuli\meat_grinder\meat_grinder_02s.jpg	1	-1	0	0	meat_grinder_02s.jpg	0	0.0	0	66.91803695552521	66.968022717163	0.0499857616377994	118549
118.649	50	203	0	0	powder	1236	203	0	stimuli\powder\powder_04s.jpg	3	-1	0	0	powder_04s.jpg	0	0.0	0	67.0180401738035	67.0680193525041	0.0499791787005961	118649
118.749	50	204	0	0	bomb	160	204	0	stimuli\bomb\bomb_02s.jpg	1	-1	0	0	bomb_02s.jpg	0	0.0	0	67.1180397350108	67.16801891371139	0.0499791787005961	118749
118.849	50	205	0	0	kayak	863	205	0	stimuli\kayak\kayak_06s.jpg	5	-1	0	0	kayak_06s.jpg	0	0.0	0	67.2180449037114	67.2680257890606	0.0499808853492141	118849
118.949	50	206	0	0	battery	97	206	0	stimuli\battery\battery_11s.jpg	10	-1	0	0	battery_11s.jpg	0	0.0	0	67.3180303239496	67.36800584546289	0.0499755215132609	118949
119.049	50	207	0	0	bug	212	207	0	stimuli\bug\bug_08s.jpg	7	-1	0	0	bug_08s.jpg	0	0.0	0	67.4180267156335	67.4680049190065	0.0499782033730298	119049
119.149	50	208	0	0	buoy	223	208	0	stimuli\buoy\buoy_06s.jpg	5	-1	0	0	buoy_06s.jpg	0	0.0	0	67.518029446248	67.56801545154299	0.049986005295068	119149
119.249	50	209	0	0	baseball_bat	79	209	0	stimuli\baseball_bat\baseball_bat_12s.jpg	11	-1	0	0	baseball_bat_12s.jpg	0	0.0	0	67.6180321768625	67.66801379364921	0.0499816167866811	119249
119.349	50	210	0	0	nail_polish	1049	210	0	stimuli\nail_polish\nail_polish_05s.jpg	4	-1	0	0	nail_polish_05s.jpg	0	0.0	0	67.7180341761559	67.768014086294	0.0499799101380631	119349
119.449	50	211	0	0	drum	522	211	0	stimuli\drum\drum_11n.jpg	10	-1	0	0	drum_11n.jpg	0	0.0	0	67.818036175333	67.86804290453439	0.0500067292014137	119449
119.549	50	212	0	0	dirt_bike	488	212	0	stimuli\dirt_bike\dirt_bike_10s.jpg	9	-1	0	0	dirt_bike_10s.jpg	0	0.0	0	67.9180435384624	67.9680210103979	0.0499774719355628	119549
119.649	50	213	0	0	spinach	1515	213	0	stimuli\spinach\spinach_12s.jpg	11	-1	0	0	spinach_12s.jpg	0	0.0	0	68.0180443186546	68.0680256915512	0.0499813728965819	119649
119.749	50	214	0	0	sidecar	1442	214	0	stimuli\sidecar\sidecar_03s.jpg	2	-1	0	0	sidecar_03s.jpg	0	0.0	0	68.1180463178316	68.1680247650947	0.0499784472631291	119749
119.849	50	215	0	0	hot-water_bottle	802	215	0	stimuli\hot-water_bottle\hot-water_bottle_05s.jpg	4	-1	0	0	hot-water_bottle_05s.jpg	0	0.0	0	68.2180453913752	68.268027983373	0.0499825919978321	119849
119.949	50	216	0	0	duckling	526	216	0	stimuli\duckling\duckling_11s.jpg	10	-1	0	0	duckling_11s.jpg	0	0.0	0	68.3180837181862	68.3680621654494	0.0499784472631291	119949
120.049	50	217	0	0	trident	1712	217	0	stimuli\trident\trident_12s.jpg	11	-1	0	0	trident_12s.jpg	0	0.0	0	68.41807962220629	68.4680648960639	0.049985273857600994	120049
120.149	50	218	0	0	poodle	1221	218	0	stimuli\poodle\poodle_01b.jpg	0	-1	0	0	poodle_01b.jpg	0	0.0	0	68.51806552999189	68.5680690896697	0.0500035596778616	120149
120.249	50	219	0	0	mirror	1005	219	0	stimuli\mirror\mirror_08s.jpg	7	-1	0	0	mirror_08s.jpg	0	0.0	0	68.61808410822411	68.66804963361939	0.0499655253952369	120249
120.349	50	220	0	0	fish	600	220	0	stimuli\fish\fish_02s.jpg	1	-1	0	0	fish_02s.jpg	0	0.0	0	68.71808830183001	68.76803993002979	0.0499516281997785	120349
120.449	50	221	0	0	notepad	1065	221	0	stimuli\notepad\notepad_10s.jpg	9	-1	0	0	notepad_10s.jpg	0	0.0	0	68.8180644572712	68.86804363597179	0.0499791787005961	120449
120.549	50	222	0	0	clock	359	222	0	stimuli\clock\clock_03n.jpg	2	-1	0	0	clock_03n.jpg	0	0.0	0	68.918064506026	68.9680429532891	0.0499784472631291	120549
120.649	50	223	0	0	snack	1475	223	0	stimuli\snack\snack_02s.jpg	1	-1	0	0	snack_02s.jpg	0	0.0	0	69.0180633356795	69.0680793295614	0.0500159938819706	120649
120.749	50	224	0	0	blind	140	224	0	stimuli\blind\blind_08s.jpg	7	-1	0	0	blind_08s.jpg	1	0.0	0	69.1181036130292	69.16807742789389	0.0499738148646429	120749
120.849	50	225	0	0	cane	258	225	0	stimuli\cane\cane_06n.jpg	5	-1	0	0	cane_06n.jpg	0	0.0	0	69.2180826942204	69.2680833280319	0.0500006338115782	120849
120.949	50	226	0	0	tiramisu	1663	226	0	stimuli\tiramisu\tiramisu_12s.jpg	11	-1	0	0	tiramisu_12s.jpg	0	0.0	0	69.3180895695696	69.3680889843963	0.0499994148267433	120949
121.049	50	227	0	0	mast	981	227	0	stimuli\mast\mast_09s.jpg	8	-1	0	0	mast_09s.jpg	0	0.0	0	69.4180869364645	69.4680778179318	0.0499908814672381	121049
121.149	50	228	0	0	weather_vane	1798	228	0	stimuli\weather_vane\weather_vane_01s.jpg	0	-1	0	0	weather_vane_01s.jpg	0	0.0	0	69.5180986881023	69.5680817676475	0.0499830795451999	121149
121.249	50	229	0	0	ruby	1338	229	0	stimuli\ruby\ruby_04s.jpg	3	-1	0	0	ruby_04s.jpg	0	0.0	0	69.6180970302084	69.6680757212453	0.049978691036812996	121249
121.349	50	230	0	0	quesadilla	1261	230	0	stimuli\quesadilla\quesadilla_04s.jpg	3	-1	0	0	quesadilla_04s.jpg	0	0.0	0	69.7181124389172	69.768095030915	0.0499825919978321	121349
121.449	50	231	0	0	puppy	1258	231	0	stimuli\puppy\puppy_11s.jpg	10	-1	0	0	puppy_11s.jpg	0	0.0	0	69.81811907049271	69.868083133013	0.0499640625203028	121449
121.549	50	232	0	0	boar	151	232	0	stimuli\boar\boar_11s.jpg	10	-1	0	0	boar_11s.jpg	0	0.0	0	69.9181044907309	69.96809781040061	0.0499933196697384	121549
121.649	50	233	0	0	faucet	573	233	0	stimuli\faucet\faucet_05s.jpg	4	-1	0	0	faucet_05s.jpg	0	0.0	0	70.0181238004006	70.0680998095777	0.049976009177044006	121649
121.749	50	234	0	0	crayfish	434	234	0	stimuli\crayfish\crayfish_11s.jpg	10	-1	0	0	crayfish_11s.jpg	0	0.0	0	70.1181036130292	70.16807937831621	0.0499757652869448	121749
121.849	50	235	0	0	corsage	417	235	0	stimuli\corsage\corsage_08s.jpg	7	-1	0	0	corsage_08s.jpg	0	0.0	0	70.2181014674716	70.2680830842583	0.0499816167866811	121849
121.949	50	236	0	0	stake	1533	236	0	stimuli\stake\stake_06s.jpg	5	-1	0	0	stake_06s.jpg	0	0.0	0	70.3181098058121	70.3680889843963	0.0499791785841808	121949
122.049	50	237	0	0	apron	33	237	0	stimuli\apron\apron_03s.jpg	2	-1	0	0	apron_03s.jpg	0	0.0	0	70.4181064411532	70.46808123134541	0.0499747901922092	122049
122.149	50	238	0	0	blinder	141	238	0	stimuli\blinder\blinder_01b.jpg	0	-1	0	0	blinder_01b.jpg	0	0.0	0	70.5181077090092	70.5680844496237	0.0499767406145111	122149
122.249	50	239	0	0	eggshell	551	239	0	stimuli\eggshell\eggshell_05s.jpg	4	-1	0	0	eggshell_05s.jpg	0	0.0	0	70.6181043444667	70.66807498980779	0.0499706453410909	122249
122.349	50	240	0	0	jeans	842	240	0	stimuli\jeans\jeans_04s.jpg	3	-1	0	0	jeans_04s.jpg	0	0.0	0	70.7181207283866	70.7681016137358	0.0499808853492141	122349
122.449	50	241	0	0	leggings	912	241	0	stimuli\leggings\leggings_03s.jpg	2	-1	0	0	leggings_03s.jpg	0	0.0	0	70.81814223236871	70.8681209234055	0.049978691036812996	122449
122.549	50	242	0	0	timer	1661	242	0	stimuli\timer\timer_02s.jpg	1	-1	0	0	timer_02s.jpg	0	0.0	0	70.9181435002247	70.9681243855739	0.0499808853492141	122549
122.649	50	243	0	0	bike	123	243	0	stimuli\bike\bike_11s.jpg	10	-1	0	0	bike_11s.jpg	0	0.0	0	71.0181469622767	71.0681258972036	0.0499789349269122	122649
122.749	50	244	0	0	baton4	95	244	0	stimuli\baton4\baton4_01b.jpg	0	-1	0	0	baton4_01b.jpg	0	0.0	0	71.1181492053438	71.16811180498921	0.0499625996453688	122749
122.849	50	245	0	0	closet	360	245	0	stimuli\closet\closet_06s.jpg	5	-1	0	0	closet_06s.jpg	0	0.0	0	71.21814827888741	71.2681337966351	0.0499855177477002	122849
122.949	50	246	0	0	fern	577	246	0	stimuli\fern\fern_06s.jpg	5	-1	0	0	fern_06s.jpg	0	0.0	0	71.3181522286031	71.36811336537359	0.0499611367704347	122949
123.049	50	247	0	0	toolbox	1677	247	0	stimuli\toolbox\toolbox_10s.jpg	9	-1	0	0	toolbox_10s.jpg	0	0.0	0	71.4181364297401	71.4681143893395	0.0499779595993459	123049
123.149	50	248	0	0	outfit	1087	248	0	stimuli\outfit\outfit_10s.jpg	9	-1	0	0	outfit_10s.jpg	0	0.0	0	71.51816378510559	71.5681400380563	0.0499762529507279	123149
123.249	50	249	0	0	pigeon	1171	249	0	stimuli\pigeon\pigeon_01b.jpg	0	-1	0	0	pigeon_01b.jpg	0	0.0	0	71.6181623709854	71.66814325633459	0.0499808853492141	123249
123.349	50	250	0	0	car_seat	269	250	0	stimuli\car_seat\car_seat_12s.jpg	11	-1	0	0	car_seat_12s.jpg	0	0.0	0	71.7181633950677	71.7681420861045	0.049978691036812996	123349
123.449	50	251	0	0	bracelet2	188	251	0	stimuli\bracelet2\bracelet2_09s.jpg	8	-1	0	0	bracelet2_09s.jpg	0	0.0	0	71.8181466209935	71.86812579969408	0.0499791787005961	123449
123.549	50	252	0	0	hammer	741	252	0	stimuli\hammer\hammer_08s.jpg	7	-1	0	0	hammer_08s.jpg	0	0.0	0	71.9181466697482	71.9681314560585	0.0499847863102332	123549
123.649	50	253	0	0	cassette	283	253	0	stimuli\cassette\cassette_11n.jpg	10	-1	0	0	cassette_11n.jpg	0	0.0	0	72.01814866892529	72.06813174858691	0.0499830796616152	123649
123.749	50	254	0	0	licorice	922	254	0	stimuli\licorice\licorice_09s.jpg	8	-1	0	0	licorice_09s.jpg	0	0.0	0	72.11814823013259	72.16812887159179	0.0499806414591148	123749
123.849	50	255	0	0	glass	677	255	0	stimuli\glass\glass_10s.jpg	9	-1	0	0	glass_10s.jpg	0	0.0	0	72.2181521798484	72.26813306519759	0.0499808853492141	123849
123.949	50	256	0	0	saffron	1345	256	0	stimuli\saffron\saffron_10s.jpg	9	-1	0	0	saffron_10s.jpg	0	0.0	0	72.3181563733378	72.36815042432859	0.0499940509907901	123949
124.049	50	257	0	0	soy_sauce	1500	257	0	stimuli\soy_sauce\soy_sauce_08s.jpg	7	-1	0	0	soy_sauce_08s.jpg	0	0.0	0	72.418181778281	72.4681604693178	0.049978691036812996	124049
124.149	50	258	0	0	sheet	1415	258	0	stimuli\sheet\sheet_01b.jpg	0	-1	0	0	sheet_01b.jpg	0	0.0	0	72.51816768606659	72.5681636875961	0.0499960015295073	124149
124.249	50	259	0	0	oar	1068	259	0	stimuli\oar\oar_10s.jpg	9	-1	0	0	oar_10s.jpg	0	0.0	0	72.61818285100159	72.66817105060909	0.0499881996074691	124249
124.349	50	260	0	0	plastic_film	1196	260	0	stimuli\plastic_film\plastic_film_09s.jpg	8	-1	0	0	plastic_film_09s.jpg	0	0.0	0	72.7181914331159	72.7681691489415	0.049977715825661996	124349
124.449	50	261	0	0	catfish	287	261	0	stimuli\catfish\catfish_06s.jpg	5	-1	0	0	catfish_06s.jpg	0	0.0	0	72.818189775222	72.8681621272117	0.0499723519897088	124449
124.549	50	262	0	0	pogo_stick	1208	262	0	stimuli\pogo_stick\pogo_stick_01s.jpg	0	-1	0	0	pogo_stick_01s.jpg	0	0.0	0	72.918181778281	72.9681643702788	0.0499825919978321	124549
124.649	50	263	0	0	barbed_wire	71	263	0	stimuli\barbed_wire\barbed_wire_12s.jpg	11	-1	0	0	barbed_wire_12s.jpg	0	0.0	0	73.0181847526692	73.0681658819085	0.0499811292393133	124649
124.749	50	264	0	0	arm	36	264	0	stimuli\arm\arm_08s.jpg	7	-1	0	0	arm_08s.jpg	0	0.0	0	73.11819235957229	73.1681695877342	0.0499772281618789	124749
124.849	50	265	0	0	marble	972	265	0	stimuli\marble\marble_08s.jpg	7	-1	0	0	marble_08s.jpg	0	0.0	0	73.21819070167841	73.2681784136221	0.049987711943686	124849
124.949	50	266	0	0	hail	732	266	0	stimuli\hail\hail_12s.jpg	11	-1	0	0	hail_12s.jpg	0	0.0	0	73.3181941637304	73.3681762681808	0.0499821044504642	124949
125.049	50	267	0	0	shower_curtain	1435	267	0	stimuli\shower_curtain\shower_curtain_04s.jpg	3	-1	0	0	shower_curtain_04s.jpg	0	0.0	0	73.41819567536	73.468179242569	0.049983567208983004	125049
125.149	50	268	0	0	fox	638	268	0	stimuli\fox\fox_08s.jpg	7	-1	0	0	fox_08s.jpg	0	0.0	0	73.5181996250758	73.5681941637304	0.0499945386545733	125149
125.249	50	269	0	0	banjo	68	269	0	stimuli\banjo\banjo_12s.jpg	11	-1	0	0	banjo_12s.jpg	0	0.0	0	73.61821405857341	73.6681805591797	0.0499665006063879	125249
125.349	50	270	0	0	avocado	43	270	0	stimuli\avocado\avocado_05s.jpg	4	-1	0	0	avocado_05s.jpg	0	0.0	0	73.7182114254683	73.7681932860287	0.049981860560364993	125349
125.449	50	271	0	0	popsicle	1225	271	0	stimuli\popsicle\popsicle_08s.jpg	7	-1	0	0	popsicle_08s.jpg	0	0.0	0	73.8182146437466	73.86819211579859	0.0499774720519781	125449
125.549	50	272	0	0	remote_control	1302	272	0	stimuli\remote_control\remote_control_04s.jpg	3	-1	0	0	remote_control_04s.jpg	0	0.0	0	73.91821493627499	73.9681955778506	0.0499806415755302	125549
125.649	50	273	0	0	board_game	153	273	0	stimuli\board_game\board_game_02s.jpg	1	-1	0	0	board_game_02s.jpg	0	0.0	0	74.01819986884949	74.0681863618083	0.0499864929588512	125649
125.749	50	274	0	0	meat	987	274	0	stimuli\meat\meat_01b.jpg	0	-1	0	0	meat_01b.jpg	0	0.0	0	74.1182272242149	74.16820542770441	0.0499782034894451	125749
125.849	50	275	0	0	blazer	137	275	0	stimuli\blazer\blazer_11s.jpg	10	-1	0	0	blazer_11s.jpg	0	0.0	0	74.21821581397671	74.2682120592799	0.0499962453031912	125849
125.949	50	276	0	0	sonogram	1496	276	0	stimuli\sonogram\sonogram_12s.jpg	11	-1	0	0	sonogram_12s.jpg	0	0.0	0	74.3182356113102	74.36821137671359	0.0499757654033601	125949
126.049	50	277	0	0	ukulele	1742	277	0	stimuli\ukulele\ukulele_11s.jpg	10	-1	0	0	ukulele_11s.jpg	0	0.0	0	74.4182320028776	74.46821118157821	0.0499791787005961	126049
126.149	50	278	0	0	gallows	653	278	0	stimuli\gallows\gallows_12s.jpg	11	-1	0	0	gallows_12s.jpg	0	0.0	0	74.5182176668895	74.5682158627314	0.0499981958419085	126149
126.249	50	279	0	0	cash_machine	279	279	0	stimuli\cash_machine\cash_machine_05s.jpg	4	-1	0	0	cash_machine_05s.jpg	0	0.0	0	74.61823429469949	74.668203233392	0.0499689386924729	126249
126.349	50	280	0	0	blowtorch	148	280	0	stimuli\blowtorch\blowtorch_12n.jpg	11	-1	0	0	blowtorch_12n.jpg	0	0.0	0	74.71823824441529	74.76823205163241	0.0499938072171062	126349
126.449	50	281	0	0	boat	154	281	0	stimuli\boat\boat_06n.jpg	5	-1	0	0	boat_06n.jpg	0	0.0	0	74.8182441446697	74.8682225919329	0.0499784472631291	126449
126.549	50	282	0	0	windshield_wiper	1821	282	0	stimuli\windshield_wiper\windshield_wiper_11s.jpg	10	-1	0	0	windshield_wiper_11s.jpg	0	0.0	0	74.918243461987	74.968227029196	0.049983567208983004	126549
126.649	50	283	0	0	parachute	1118	283	0	stimuli\parachute\parachute_06s.jpg	5	-1	0	0	parachute_06s.jpg	0	0.0	0	75.0182515564375	75.0682246398646	0.0499730834271759	126649
126.749	50	284	0	0	harmonica	753	284	0	stimuli\harmonica\harmonica_10s.jpg	9	-1	0	0	harmonica_10s.jpg	0	0.0	0	75.1182494108798	75.168230296229	0.0499808853492141	126749
126.849	50	285	0	0	speaker	1509	285	0	stimuli\speaker\speaker_11s.jpg	10	-1	0	0	speaker_11s.jpg	0	0.0	0	75.2182494596345	75.26822522503791	0.0499757654033601	126849
126.949	50	286	0	0	bathtub	91	286	0	stimuli\bathtub\bathtub_03s.jpg	2	-1	0	0	bathtub_03s.jpg	0	0.0	0	75.3182341484353	75.36821137671359	0.0499772282782942	126949
127.049	50	287	0	0	straw1	1568	287	0	stimuli\straw1\straw1_05s.jpg	4	-1	0	0	straw1_05s.jpg	0	0.0	0	75.41823468485379	75.46821313211692	0.0499784472631291	127049
127.149	50	288	0	0	strainer	1566	288	0	stimuli\strainer\strainer_03s.jpg	2	-1	0	0	strainer_03s.jpg	0	0.0	0	75.5182537507499	75.5682451198809	0.0499913691310212	127149
127.249	50	289	0	0	sickle	1441	289	0	stimuli\sickle\sickle_06s.jpg	5	-1	0	0	sickle_06s.jpg	0	0.0	0	75.6182608699892	75.66823151533029	0.0499706453410909	127249
127.349	50	290	0	0	cap	265	290	0	stimuli\cap\cap_05s.jpg	4	-1	0	0	cap_05s.jpg	0	0.0	0	75.7182636006037	75.76823351450729	0.0499699139036238	127349
127.449	50	291	0	0	gramophone	699	291	0	stimuli\gramophone\gramophone_06s.jpg	5	-1	0	0	gramophone_06s.jpg	0	0.0	0	75.8182702321792	75.8682479480049	0.049977715825661996	127449
127.549	50	292	0	0	guardrail	720	292	0	stimuli\guardrail\guardrail_04s.jpg	3	-1	0	0	guardrail_04s.jpg	0	0.0	0	75.9182715000352	75.96824726543849	0.0499757654033601	127549
127.649	50	293	0	0	bouquet	173	293	0	stimuli\bouquet\bouquet_05s.jpg	4	-1	0	0	bouquet_05s.jpg	0	0.0	0	76.01824277930429	76.06825511599891	0.0500123366946355	127649
127.749	50	294	0	0	seismograph	1403	294	0	stimuli\seismograph\seismograph_05s.jpg	4	-1	0	1	seismograph_05s.jpg	0	0.0	0	76.1182733041933	76.1682544333162	0.04998112912289799	127749
127.849	50	295	0	0	mantle	969	295	0	stimuli\mantle\mantle_09s.jpg	8	-1	0	0	mantle_09s.jpg	0	0.0	0	76.2182745720493	76.26826569740659	0.0499911253573373	127849
127.949	50	296	0	0	bolt	159	296	0	stimuli\bolt\bolt_01b.jpg	0	-1	0	0	bolt_01b.jpg	0	0.0	0	76.3182804721873	76.3682586756768	0.0499782034894451	127949
128.049	50	297	0	0	juice	854	297	0	stimuli\juice\juice_03s.jpg	2	-1	0	0	juice_03s.jpg	1	0.341914848191664	1	76.41827954573091	76.46826335683001	0.0499838110990822	128049
128.149	50	298	0	0	whale	1804	298	0	stimuli\whale\whale_02s.jpg	1	-1	0	0	whale_02s.jpg	0	0.0	0	76.5182844706578	76.5682665751083	0.0499821044504642	128149
128.249	50	299	0	0	watering_can	1792	299	0	stimuli\watering_can\watering_can_01b.jpg	0	-1	0	0	watering_can_01b.jpg	0	0.0	0	76.6182869574986	76.6682693057228	0.0499823482241482	128249
128.349	50	300	0	0	piglet	1173	300	0	stimuli\piglet\piglet_07s.jpg	6	-1	0	0	piglet_07s.jpg	0	0.0	0	76.7182918824255	76.7682708173525	0.0499789349269122	128349
128.449	50	301	0	0	appetizer	29	301	0	stimuli\appetizer\appetizer_02s.jpg	1	-1	0	0	appetizer_02s.jpg	0	0.0	0	76.81829510070379	76.8682720852084	0.0499769845046103	128449
128.549	50	302	0	0	raincoat	1279	302	0	stimuli\raincoat\raincoat_03s.jpg	2	-1	0	0	raincoat_03s.jpg	0	0.0	0	76.9182768638711	76.968259455869	0.0499825919978321	128549
128.649	50	303	0	0	water_fountain	1790	303	0	stimuli\water_fountain\water_fountain_12s.jpg	11	-1	0	0	water_fountain_12s.jpg	0	0.0	0	77.0182949544396	77.068257554085	0.0499625996453688	128649
128.749	50	304	0	0	hockey_stick	783	304	0	stimuli\hockey_stick\hockey_stick_07s.jpg	6	-1	0	0	hockey_stick_07s.jpg	0	0.0	0	77.11828086234159	77.16825882194101	0.0499779595993459	128749
128.849	50	305	0	0	helmet	776	305	0	stimuli\helmet\helmet_02s.jpg	1	-1	0	0	helmet_02s.jpg	0	0.0	0	77.2183045605198	77.26826277165671	0.0499582111369818	128849
128.949	50	306	0	0	top_hat	1682	306	0	stimuli\top_hat\top_hat_05s.jpg	4	-1	0	0	top_hat_05s.jpg	0	0.0	0	77.3182836417109	77.36825770046559	0.0499740587547421	128949
129.049	50	307	0	0	anteater	25	307	0	stimuli\anteater\anteater_03s.jpg	2	-1	0	0	anteater_03s.jpg	0	0.0	0	77.4182853971142	77.4682648195885	0.04997942247428	129049
129.149	50	308	0	0	pudding	1246	308	0	stimuli\pudding\pudding_02s.jpg	1	-1	0	0	pudding_02s.jpg	0	0.0	0	77.51831080205741	77.5682897369843	0.0499789349269122	129149
135.399	50	309	0	0	blowgun	147	0	1	stimuli\blowgun\blowgun_11s.jpg	10	-1	1	0	blowgun_11s.jpg	0	0.0	0	83.7684712285409	83.81844626239041	0.0499750338494778	135399
135.499	50	310	0	0	bonsai	164	1	1	stimuli\bonsai\bonsai_12s.jpg	11	-1	1	0	bonsai_12s.jpg	0	0.0	0	83.8684700581944	83.91844850545749	0.0499784472631291	135499
135.599	50	311	0	0	wok	1830	2	1	stimuli\wok\wok_12s.jpg	11	-1	1	0	wok_12s.jpg	0	0.0	0	83.96845499076879	84.0184375828831	0.0499825921142474	135599
135.699	50	312	0	0	rice	1309	3	1	stimuli\rice\rice_01b.jpg	0	-1	1	0	rice_01b.jpg	0	0.0	0	84.0684772261884	84.1184593306389	0.0499821044504642	135699
135.799	50	313	0	0	cage	236	4	1	stimuli\cage\cage_03s.jpg	2	-1	1	0	cage_03s.jpg	0	0.0	0	84.1684789815918	84.2184581602924	0.0499791787005961	135799
135.899	50	314	0	0	teepee	1637	5	1	stimuli\teepee\teepee_04s.jpg	3	-1	1	0	teepee_04s.jpg	0	0.0	0	84.26848122465891	84.318459671922	0.0499784472631291	135899
135.999	50	315	0	0	joystick	852	6	1	stimuli\joystick\joystick_01b.jpg	0	-1	1	0	joystick_01b.jpg	0	0.0	0	84.36846664489708	84.41846069600429	0.0499940511072055	135999
136.099	50	316	0	0	soda_fountain	1491	7	1	stimuli\soda_fountain\soda_fountain_07s.jpg	6	-1	1	0	soda_fountain_07s.jpg	0	0.0	0	84.4684666936519	84.5184641580563	0.0499974644044414	136099
136.199	50	317	0	0	girl	676	8	1	stimuli\girl\girl_12s.jpg	11	-1	1	0	girl_12s.jpg	0	0.0	0	84.5684852718841	84.6184493344044	0.0499640625203028	136199
136.299	50	318	0	0	throne	1652	9	1	stimuli\throne\throne_02s.jpg	1	-1	1	0	throne_02s.jpg	0	0.0	0	84.66848970926371	84.7184783965349	0.0499886872712523	136299
136.399	50	319	0	0	spareribs	1505	10	1	stimuli\spareribs\spareribs_11s.jpg	10	-1	1	0	spareribs_11s.jpg	0	0.0	0	84.7684934150893	84.818475031876	0.0499816167866811	136399
136.499	50	320	0	0	ship	1421	11	1	stimuli\ship\ship_08s.jpg	7	-1	1	0	ship_08s.jpg	0	0.0	0	84.8684932200704	84.91844679880892	0.0499535787384957	136499
136.599	50	321	0	0	pita	1189	12	1	stimuli\pita\pita_12s.jpg	11	-1	1	0	pita_12s.jpg	0	0.0	0	84.96846742508929	85.0184782990254	0.0500108739361167	136599
136.699	50	322	0	0	lizard	937	13	1	stimuli\lizard\lizard_06n.jpg	5	-1	1	0	lizard_06n.jpg	0	0.0	0	85.06849916907959	85.11846250016241	0.0499633310828358	136699
136.799	50	323	0	0	wedding_cake	1800	14	1	stimuli\wedding_cake\wedding_cake_03s.jpg	2	-1	1	0	wedding_cake_03s.jpg	0	0.0	0	85.1684870272875	85.2184820536058	0.0499950263183564	136799
136.899	50	324	0	0	loveseat	947	15	1	stimuli\loveseat\loveseat_10s.jpg	9	-1	1	0	loveseat_10s.jpg	0	0.0	0	85.2684895142447	85.3184835652355	0.0499940509907901	136899
136.999	50	325	0	0	pants	1108	16	1	stimuli\pants\pants_07s.jpg	6	-1	1	0	pants_07s.jpg	0	0.0	0	85.3684776163427	85.4184567950433	0.0499791787005961	136999
137.099	50	326	0	0	bottle_opener	171	17	1	stimuli\bottle_opener\bottle_opener_07s.jpg	6	-1	1	0	bottle_opener_07s.jpg	0	0.0	0	85.46847815264479	85.5184939027531	0.0500157501082867	137099
137.199	50	327	0	0	noose	1062	18	1	stimuli\noose\noose_12s.jpg	11	-1	1	0	noose_12s.jpg	0	0.0	0	85.5685089214239	85.61849029443691	0.0499813730129972	137199
137.299	50	328	0	0	neck	1053	19	1	stimuli\neck\neck_01b.jpg	0	-1	1	0	neck_01b.jpg	0	0.0	0	85.6685123834759	85.7184805907309	0.0499682072550058	137299
137.399	50	329	0	0	stilt	1555	20	1	stimuli\stilt\stilt_04s.jpg	3	-1	1	0	stilt_04s.jpg	0	0.0	0	85.76851730840279	85.81849599955599	0.0499786911532283	137399
137.499	50	330	0	0	forklift	635	21	1	stimuli\forklift\forklift_04n.jpg	3	-1	1	0	forklift_04n.jpg	0	0.0	0	85.8685185762588	85.91849677974821	0.0499782034894451	137499
137.599	50	331	0	0	tooth	1678	22	1	stimuli\tooth\tooth_04s.jpg	3	-1	1	0	tooth_04s.jpg	0	0.0	0	85.96851789357609	86.01850584940979	0.0499879558337852	137599
137.699	50	332	0	0	bowling_ball	179	23	1	stimuli\bowling_ball\bowling_ball_11s.jpg	10	-1	1	0	bowling_ball_11s.jpg	0	0.0	0	86.06852476904172	86.1185015096562	0.0499767406145111	137699
137.799	50	333	0	0	matchbox	984	24	1	stimuli\matchbox\matchbox_01b.jpg	0	-1	1	0	matchbox_01b.jpg	0	0.0	0	86.168524086359	86.2185066783568	0.0499825919978321	137799
137.899	50	334	0	0	axe	45	25	1	stimuli\axe\axe_04n.jpg	3	-1	1	0	axe_04n.jpg	0	0.0	0	86.2685263294261	86.31850307004059	0.0499767406145111	137899
137.999	50	335	0	0	dalmatian	471	26	1	stimuli\dalmatian\dalmatian_10s.jpg	9	-1	1	0	dalmatian_10s.jpg	0	0.0	0	86.3685278410558	86.41850921395229	0.0499813728965819	137999
138.099	50	336	0	0	shorts	1430	27	1	stimuli\shorts\shorts_11s.jpg	10	-1	1	0	shorts_11s.jpg	0	0.0	0	86.46853471640499	86.51851511420679	0.0499803978018463	138099
138.199	50	337	0	0	button2	231	28	1	stimuli\button2\button2_02s.jpg	1	-1	1	0	button2_02s.jpg	0	0.0	0	86.5685233061668	86.6185178448213	0.0499945386545733	138199
138.299	50	338	0	0	moose	1018	29	1	stimuli\moose\moose_11s.jpg	10	-1	1	0	moose_11s.jpg	0	0.0	0	86.6685372520005	86.71851301740391	0.0499757654033601	138299
138.399	50	339	0	0	tape	1622	30	1	stimuli\tape\tape_07s.jpg	6	-1	1	0	tape_07s.jpg	0	0.0	0	86.7685402265051	86.81852379371408	0.049983567208983004	138399
138.499	50	340	0	0	sand	1351	31	1	stimuli\sand\sand_07s.jpg	6	-1	1	0	sand_07s.jpg	0	0.0	0	86.86854393244721	86.9185250615701	0.04998112912289799	138499
138.599	50	341	0	0	memory_stick	995	32	1	stimuli\memory_stick\memory_stick_04s.jpg	3	-1	1	0	memory_stick_04s.jpg	0	0.0	0	86.96854739449921	87.01851389510558	0.0499665006063879	138599
138.699	50	342	0	0	drumstick	523	33	1	stimuli\drumstick\drumstick_11s.jpg	10	-1	1	0	drumstick_11s.jpg	0	0.0	0	87.0685501251137	87.1185307666892	0.0499806415755302	138699
138.799	50	343	0	0	anklet	23	34	1	stimuli\anklet\anklet_04s.jpg	3	-1	1	0	anklet_04s.jpg	0	0.0	0	87.168537983438	87.21853983646722	0.0500018530292436	138799
138.899	50	344	0	0	waffle_iron	1771	35	1	stimuli\waffle_iron\waffle_iron_04s.jpg	3	-1	1	0	waffle_iron_04s.jpg	0	0.0	0	87.2685558303492	87.3185337899486	0.0499779595993459	138899
138.999	50	345	0	0	float	616	36	1	stimuli\float\float_10s.jpg	9	-1	1	0	float_10s.jpg	0	0.0	0	87.368542713346	87.4185484672198	0.0500057538738474	138999
139.099	50	346	0	0	cellphone	293	37	1	stimuli\cellphone\cellphone_12s.jpg	11	-1	1	0	cellphone_12s.jpg	0	0.0	0	87.46854739449921	87.51854680932591	0.0499994148267433	139099
139.199	50	347	0	0	screen1	1388	38	1	stimuli\screen1\screen1_07s.jpg	6	-1	1	0	screen1_07s.jpg	0	0.0	0	87.56854256708169	87.618515894399	0.0499733273172751	139199
139.299	50	348	0	0	pump	1252	39	1	stimuli\pump\pump_12s.jpg	11	-1	1	0	pump_12s.jpg	0	0.0	0	87.66854797967241	87.7185269144829	0.0499789348104969	139299
139.399	50	349	0	0	cornhusk	414	40	1	stimuli\cornhusk\cornhusk_03s.jpg	2	-1	1	0	cornhusk_03s.jpg	0	0.0	0	87.7685650950298	87.81854817469141	0.0499830796616152	139399
139.499	50	350	0	0	noodle	1061	41	1	stimuli\noodle\noodle_07s.jpg	6	-1	1	0	noodle_07s.jpg	0	0.0	0	87.8685519781429	87.9185504177585	0.0499984396155924	139499
139.599	50	351	0	0	cilantro	347	42	1	stimuli\cilantro\cilantro_05s.jpg	4	-1	1	0	cilantro_05s.jpg	0	0.0	0	87.96857299446128	88.01852876751221	0.0499557730508968	139599
139.699	50	352	0	0	granola	701	43	1	stimuli\granola\granola_08s.jpg	7	-1	1	0	granola_08s.jpg	0	0.0	0	88.0685479309177	88.118527353392	0.04997942247428	139699
139.799	50	353	0	0	windowsill	1819	44	1	stimuli\windowsill\windowsill_11s.jpg	10	-1	1	0	windowsill_11s.jpg	0	0.0	0	88.1685518806335	88.2185727506876	0.0500208700541407	139799
139.899	50	354	0	0	lawnmower	905	45	1	stimuli\lawnmower\lawnmower_06s.jpg	5	-1	1	0	lawnmower_06s.jpg	0	0.0	0	88.2685785045614	88.3185391537845	0.0499606492230669	139899
139.999	50	355	0	0	mosquito	1020	46	1	stimuli\mosquito\mosquito_05s.jpg	4	-1	1	0	mosquito_05s.jpg	0	0.0	0	88.3685800161911	88.4185474920087	0.0499674758175388	139999
140.099	50	356	0	0	diving_board	494	47	1	stimuli\diving_board\diving_board_03s.jpg	2	-1	1	0	diving_board_03s.jpg	0	0.0	0	88.46858884207899	88.5185443712398	0.0499555291607976	140099
140.199	50	357	0	0	gel	669	48	1	stimuli\gel\gel_12s.jpg	11	-1	1	0	gel_12s.jpg	0	0.0	0	88.5685635346454	88.6185400314862	0.0499764968408272	140199
140.299	50	358	0	0	inhaler	828	49	1	stimuli\inhaler\inhaler_12s.jpg	11	-1	1	0	inhaler_12s.jpg	0	0.0	0	88.66856041387649	88.71854129922579	0.0499808853492141	140299
140.399	50	359	0	0	saucer	1363	50	1	stimuli\saucer\saucer_01b.jpg	0	-1	1	0	saucer_01b.jpg	0	0.0	0	88.7685975217028	88.8185562203871	0.0499586986843497	140399
140.499	50	360	0	0	dough	513	51	1	stimuli\dough\dough_12s.jpg	11	-1	1	0	dough_12s.jpg	0	0.0	0	88.86859342572279	88.9185735796345	0.049980153911747004	140499
140.599	50	361	0	0	urinal	1748	52	1	stimuli\urinal\urinal_02s.jpg	1	-1	1	0	urinal_02s.jpg	0	0.0	0	88.96860347059558	89.0185828930698	0.04997942247428	140599
140.699	50	362	0	0	red_carpet	1298	53	1	stimuli\red_carpet\red_carpet_01s.jpg	0	-1	1	0	red_carpet_01s.jpg	0	0.0	0	89.0686013251543	89.11857806565241	0.0499767404980958	140699
140.799	50	363	0	0	knob	882	54	1	stimuli\knob\knob_06s.jpg	5	-1	1	0	knob_06s.jpg	0	0.0	0	89.1685847948538	89.2185683620628	0.049983567208983004	140799
140.899	50	364	0	0	corkboard	410	55	1	stimuli\corkboard\corkboard_01s.jpg	0	-1	1	0	corkboard_01s.jpg	0	0.0	0	89.2686041045235	89.3185840146616	0.0499799101380631	140899
140.999	50	365	0	0	credit_card	438	56	1	stimuli\credit_card\credit_card_10s.jpg	9	-1	1	0	credit_card_10s.jpg	0	0.0	0	89.3686056161532	89.4185943034245	0.0499886872712523	140999
141.099	50	366	0	0	home_plate	787	57	1	stimuli\home_plate\home_plate_04s.jpg	3	-1	1	0	home_plate_04s.jpg	0	0.0	0	89.46861127251759	89.51859020744449	0.0499789349269122	141099
141.199	50	367	0	0	crucifix	449	58	1	stimuli\crucifix\crucifix_08s.jpg	7	-1	1	0	crucifix_08s.jpg	0	0.0	0	89.5686132716946	89.61859074374658	0.0499774720519781	141199
141.299	50	368	0	0	plant	1194	59	1	stimuli\plant\plant_09s.jpg	8	-1	1	0	plant_09s.jpg	0	0.0	0	89.66860088624529	89.7185946934624	0.0499938072171062	141299
141.399	50	369	0	0	fungus	648	60	1	stimuli\fungus\fungus_12s.jpg	11	-1	1	0	fungus_12s.jpg	0	0.0	0	89.7686041045235	89.8185725556687	0.0499684511451051	141399
141.499	50	370	0	0	vent	1758	61	1	stimuli\vent\vent_01b.jpg	0	-1	1	0	vent_01b.jpg	0	0.0	0	89.8685931818327	89.918580406229	0.0499872243963182	141499
141.599	50	371	0	0	cart	278	62	1	stimuli\cart\cart_03s.jpg	2	-1	1	0	cart_03s.jpg	0	0.0	0	89.96862712013541	90.01860239787491	0.049975277739577	141599
141.699	50	372	0	0	turtle	1736	63	1	stimuli\turtle\turtle_08s.jpg	7	-1	1	0	turtle_08s.jpg	0	0.0	0	90.0686269251164	90.11860537237949	0.0499784472631291	141699
141.799	50	373	0	0	mongoose	1016	64	1	stimuli\mongoose\mongoose_02s.jpg	1	-1	1	0	mongoose_02s.jpg	0	0.0	0	90.1686274614185	90.218608102994	0.0499806415755302	141799
141.899	50	374	0	0	groundhog	718	65	1	stimuli\groundhog\groundhog_03n.jpg	2	-1	1	0	groundhog_03n.jpg	0	0.0	0	90.26862848538441	90.31861083360849	0.0499823482241482	141899
141.999	50	375	0	0	basketball	83	66	1	stimuli\basketball\basketball_12s.jpg	11	-1	1	0	basketball_12s.jpg	0	0.0	0	90.36863292276391	90.4185962538468	0.0499633310828358	141999
142.099	50	376	0	0	skin	1456	67	1	stimuli\skin\skin_12s.jpg	11	-1	1	0	skin_12s.jpg	0	0.0	0	90.4686402857769	90.5186041045235	0.0499638187466189	142099
142.199	50	377	0	0	birdhouse	131	68	1	stimuli\birdhouse\birdhouse_08s.jpg	7	-1	1	0	birdhouse_08s.jpg	0	0.0	0	90.56864106596909	90.61861902568491	0.0499779597157612	142199
142.299	50	378	0	0	eyedropper	566	69	1	stimuli\eyedropper\eyedropper_12s.jpg	11	-1	1	0	eyedropper_12s.jpg	0	0.0	0	90.66862599854359	90.7186210248619	0.0499950263183564	142299
142.399	50	379	0	0	cigarette_holder	346	70	1	stimuli\cigarette_holder\cigarette_holder_01b.jpg	0	-1	1	0	cigarette_holder_01b.jpg	0	0.0	0	90.768643357791	90.8186198546318	0.0499764968408272	142399
142.499	50	380	0	0	splinter	1516	71	1	stimuli\splinter\splinter_09s.jpg	8	-1	1	0	splinter_09s.jpg	0	0.0	0	90.8686443817569	90.91860941960479	0.0499650378478691	142499
142.599	50	381	0	0	yoke	1849	72	1	stimuli\yoke\yoke_05s.jpg	4	-1	1	0	yoke_05s.jpg	0	0.0	0	90.96865028201141	91.0186270226259	0.0499767406145111	142599
142.699	50	382	0	0	mandolin	965	73	1	stimuli\mandolin\mandolin_10s.jpg	9	-1	1	0	mandolin_10s.jpg	0	0.0	0	91.06865057453979	91.1186307284515	0.049980153911747004	142699
142.799	50	383	0	0	extinguisher	563	74	1	stimuli\extinguisher\extinguisher_12s.jpg	11	-1	1	0	extinguisher_12s.jpg	0	0.0	0	91.16863794520029	91.2186349220574	0.0499969768570736	142799
142.899	50	384	0	0	soccer_ball	1488	75	1	stimuli\soccer_ball\soccer_ball_12s.jpg	11	-1	1	0	soccer_ball_12s.jpg	0	0.0	0	91.2686582301976	91.31863545835951	0.0499772281618789	142899
142.999	50	385	0	0	jet	847	76	1	stimuli\jet\jet_01b.jpg	0	-1	1	0	jet_01b.jpg	0	0.0	0	91.36865779128858	91.41863696998921	0.0499791787005961	142999
143.099	50	386	0	0	stereo	1549	77	1	stimuli\stereo\stereo_06s.jpg	5	-1	1	0	stereo_06s.jpg	0	0.0	0	91.4686573524959	91.51863775018141	0.0499803976854309	143099
143.199	50	387	0	0	rake	1281	78	1	stimuli\rake\rake_11s.jpg	10	-1	1	0	rake_11s.jpg	0	0.0	0	91.56866057077421	91.6186434065457	0.049982835771516	143199
143.299	50	388	0	0	notebook	1064	79	1	stimuli\notebook\notebook_07s.jpg	6	-1	1	0	notebook_07s.jpg	0	0.0	0	91.6686479414348	91.71863321529241	0.049985273857600994	143299
143.399	50	389	0	0	modem	1011	80	1	stimuli\modem\modem_05s.jpg	4	-1	1	0	modem_05s.jpg	0	0.0	0	91.76866603200321	91.81863643357059	0.04997040156740701	143399
143.499	50	390	0	0	scarecrow	1376	81	1	stimuli\scarecrow\scarecrow_11s.jpg	10	-1	1	0	scarecrow_11s.jpg	0	0.0	0	91.8686914369464	91.9186496480834	0.0499582111369818	143499
143.599	50	391	0	0	walrus	1779	82	1	stimuli\walrus\walrus_05s.jpg	4	-1	1	0	walrus_05s.jpg	0	0.0	0	91.96867051813749	92.0186533540254	0.0499828358879313	143599
143.699	50	392	0	0	stew	1551	83	1	stimuli\stew\stew_12s.jpg	11	-1	1	1	stew_12s.jpg	0	0.0	0	92.0686739801895	92.1186495018192	0.0499755216296762	143699
143.799	50	393	0	0	zucchini	1853	84	1	stimuli\zucchini\zucchini_03s.jpg	2	-1	1	0	zucchini_03s.jpg	0	0.0	0	92.1686481852084	92.21862980199509	0.0499816167866811	143799
143.899	50	394	0	0	garbage_truck	656	85	1	stimuli\garbage_truck\garbage_truck_07s.jpg	6	-1	1	0	garbage_truck_07s.jpg	0	0.0	0	92.26865627965891	92.31863423937469	0.0499779597157612	143899
143.999	50	395	0	0	torso	1685	86	1	stimuli\torso\torso_05s.jpg	4	-1	1	0	torso_05s.jpg	0	0.0	0	92.3686512084678	92.4186340442393	0.049982835771516	143999
144.099	50	396	0	0	banana_peel	64	87	1	stimuli\banana_peel\banana_peel_12s.jpg	11	-1	1	0	banana_peel_12s.jpg	0	0.0	0	92.4686880724039	92.5186631063698	0.0499750339658931	144099
144.199	50	397	0	0	watch	1786	88	1	stimuli\watch\watch_06s.jpg	5	-1	1	0	watch_06s.jpg	1	0.555125259445049	1	92.5686861707363	92.6186665684218	0.0499803976854309	144199
144.299	50	398	0	0	prune	1244	89	1	stimuli\prune\prune_02s.jpg	1	-1	1	0	prune_02s.jpg	0	0.0	0	92.66869036422578	92.71866149723058	0.049971133004874	144299
144.399	50	399	0	0	basketball_hoop	84	90	1	stimuli\basketball_hoop\basketball_hoop_09s.jpg	8	-1	1	0	basketball_hoop_09s.jpg	0	0.0	0	92.7686952891527	92.81868300121279	0.0499877120601013	144399
144.499	50	400	0	0	screen2	1389	91	1	stimuli\screen2\screen2_10s.jpg	9	-1	1	0	screen2_10s.jpg	0	0.0	0	92.8686955816811	92.9186793927802	0.0499838110990822	144499
144.599	50	401	0	0	yolk	1850	92	1	stimuli\yolk\yolk_02s.jpg	1	-1	1	0	yolk_02s.jpg	0	0.0	0	92.968698312412	93.01866627589328	0.0499679634813219	144599
144.699	50	402	0	0	fence	575	93	1	stimuli\fence\fence_11s.jpg	10	-1	1	0	fence_11s.jpg	0	0.0	0	93.0686983611668	93.11867949028971	0.04998112912289799	144699
144.799	50	403	0	0	pie	1168	94	1	stimuli\pie\pie_09s.jpg	8	-1	1	0	pie_09s.jpg	0	0.0	0	93.1687027984299	93.2186861219816	0.0499833235517144	144799
144.899	50	404	0	0	gumball	725	95	1	stimuli\gumball\gumball_10s.jpg	9	-1	1	0	gumball_10s.jpg	0	0.0	0	93.2687099176692	93.31868836493229	0.0499784472631291	144899
144.999	50	405	0	0	footprint	632	96	1	stimuli\footprint\footprint_01b.jpg	0	-1	1	0	footprint_01b.jpg	0	0.0	0	93.3687087474391	93.41868621949111	0.0499774720519781	144999
145.099	50	406	0	0	roof_rack	1329	97	1	stimuli\roof_rack\roof_rack_01b.jpg	0	-1	1	0	roof_rack_01b.jpg	0	0.0	0	93.46870928385759	93.51868968154301	0.0499803976854309	145099
145.199	50	407	0	0	periscope	1155	98	1	stimuli\periscope\periscope_10s.jpg	9	-1	1	0	periscope_10s.jpg	0	0.0	0	93.5687122582458	93.6186914369464	0.0499791787005961	145199
145.299	50	408	0	0	artichoke	39	99	1	stimuli\artichoke\artichoke_02s.jpg	1	-1	1	0	artichoke_02s.jpg	0	0.0	0	93.66871376987551	93.718694411451	0.0499806415755302	145299
145.399	50	409	0	0	rim	1312	100	1	stimuli\rim\rim_02s.jpg	1	-1	1	0	rim_02s.jpg	0	0.0	0	93.7687208891148	93.8187027496751	0.049981860560364993	145399
145.499	50	410	0	0	snowman	1482	101	1	stimuli\snowman\snowman_06s.jpg	5	-1	1	0	snowman_06s.jpg	0	0.0	0	93.86871971888469	93.9187013356714	0.0499816167866811	145499
145.599	50	411	0	0	ink	829	102	1	stimuli\ink\ink_08s.jpg	7	-1	1	0	ink_08s.jpg	0	0.0	0	93.968722937163	94.01868968154301	0.0499667443800718	145599
145.699	50	412	0	0	limousine	931	103	1	stimuli\limousine\limousine_09s.jpg	8	-1	1	0	limousine_09s.jpg	0	0.0	0	94.0687037250027	94.1186790027423	0.049975277739577	145699
145.799	50	413	0	0	tiger	1659	104	1	stimuli\tiger\tiger_05s.jpg	4	-1	1	0	tiger_05s.jpg	0	0.0	0	94.1686996290227	94.2187134285923	0.0500137995695695	145799
145.899	50	414	0	0	backscratcher	50	105	1	stimuli\backscratcher\backscratcher_01b.jpg	0	-1	1	0	backscratcher_01b.jpg	0	0.0	0	94.2687355176313	94.31870908872222	0.049973571090959006	145899
145.999	50	415	0	0	eel	545	106	1	stimuli\eel\eel_07s.jpg	6	-1	1	0	eel_07s.jpg	0	0.0	0	94.3687180122361	94.4186974347103	0.04997942247428	145999
146.099	50	416	0	0	dice	486	107	1	stimuli\dice\dice_06s.jpg	5	-1	1	0	dice_06s.jpg	0	0.0	0	94.46873439615591	94.5187152815051	0.0499808853492141	146099
146.199	50	417	0	0	cauliflower	288	108	1	stimuli\cauliflower\cauliflower_04s.jpg	3	-1	1	0	cauliflower_04s.jpg	0	0.0	0	94.5687385896454	94.61871825600971	0.0499796663643792	146199
146.299	50	418	0	0	batter	96	109	1	stimuli\batter\batter_09s.jpg	8	-1	1	0	batter_09s.jpg	0	0.0	0	94.66873888229021	94.7187063581077	0.0499674758175388	146299
146.399	50	419	0	0	tick	1656	110	1	stimuli\tick\tick_09s.jpg	8	-1	1	0	tick_09s.jpg	0	0.0	0	94.76871723204391	94.81869494786949	0.049977715825661996	146399
146.499	50	420	0	0	star_fruit	1540	111	1	stimuli\star_fruit\star_fruit_07s.jpg	6	-1	1	0	star_fruit_07s.jpg	0	0.0	0	94.8687150864862	94.918699141359	0.0499840548727661	146499
146.599	50	421	0	0	wood	1833	112	1	stimuli\wood\wood_01b.jpg	0	-1	1	0	wood_01b.jpg	0	0.0	0	94.9687217180617	95.01870187197349	0.049980153911747004	146599
146.699	50	422	0	0	tree	1708	113	1	stimuli\tree\tree_11s.jpg	10	-1	1	0	tree_11s.jpg	0	0.0	0	95.0687251801137	95.118700945517	0.0499757654033601	146699
146.799	50	423	0	0	razor	1290	114	1	stimuli\razor\razor_05s.jpg	4	-1	1	0	razor_05s.jpg	0	0.0	0	95.1687242536573	95.2187056266703	0.0499813730129972	146799
146.9	50	424	0	0	paint	1096	115	1	stimuli\paint\paint_01b.jpg	0	-1	1	0	paint_01b.jpg	0	0.0	0	95.26873307954521	95.31870835728479	0.049975277739577	146900
146.999	50	425	0	0	water_bottle	1787	116	1	stimuli\water_bottle\water_bottle_09s.jpg	8	-1	1	0	water_bottle_09s.jpg	0	0.0	0	95.3687326407526	95.41871108801571	0.0499784472631291	146999
147.1	50	426	0	0	rickshaw	1310	117	1	stimuli\rickshaw\rickshaw_02s.jpg	1	-1	1	0	rickshaw_02s.jpg	0	0.0	0	95.4687365904683	95.51871455006771	0.0499779595993459	147100
147.2	50	427	0	0	t-shirt	1606	118	1	stimuli\t-shirt\t-shirt_05s.jpg	4	-1	1	0	t-shirt_05s.jpg	0	0.0	0	95.5687366392231	95.6187158179237	0.0499791787005961	147200
147.3	50	428	0	0	stir_fry	1557	119	1	stimuli\stir_fry\stir_fry_05s.jpg	4	-1	1	0	stir_fry_05s.jpg	0	0.0	0	95.66873766318892	95.71871635422579	0.049978691036812996	147300
147.4	50	429	0	0	seed	1401	120	1	stimuli\seed\seed_09s.jpg	8	-1	1	0	seed_09s.jpg	0	0.0	0	95.7688050032593	95.8187502925284	0.0499452892690897	147400
147.5	50	430	0	0	copier	405	121	1	stimuli\copier\copier_02s.jpg	1	-1	1	0	copier_02s.jpg	0	0.0	0	95.8687704311451	95.9187342498917	0.0499638187466189	147500
147.6	50	431	0	0	cordon_bleu	408	122	1	stimuli\cordon_bleu\cordon_bleu_06s.jpg	5	-1	1	0	cordon_bleu_06s.jpg	0	0.0	0	95.96875097521121	96.0187355176313	0.0499845424201339	147600
147.7	50	432	0	0	margarita	973	123	1	stimuli\margarita\margarita_11s.jpg	10	-1	1	0	margarita_11s.jpg	0	0.0	0	96.0687563878018	96.11874751304279	0.049991125240922	147700
147.8	50	433	0	0	dryer	524	124	1	stimuli\dryer\dryer_05s.jpg	4	-1	1	0	dryer_05s.jpg	0	0.0	0	96.1687615565024	96.2187585332431	0.0499969767406583	147800
147.9	50	434	0	0	clove	365	125	1	stimuli\clove\clove_09s.jpg	8	-1	1	0	clove_09s.jpg	0	0.0	0	96.2687820852734	96.3187593134353	0.0499772281618789	147900
148.0	50	435	0	0	turf	1732	126	1	stimuli\turf\turf_05s.jpg	4	-1	1	0	turf_05s.jpg	0	0.0	0	96.3687848158879	96.41874668409581	0.0499618682079017	148000
148.1	50	436	0	0	manhole	967	127	1	stimuli\manhole\manhole_07n.jpg	6	-1	1	0	manhole_07n.jpg	0	0.0	0	96.46878632751759	96.5187689195154	0.0499825919978321	148100
148.2	50	437	0	0	padlock	1095	128	1	stimuli\padlock\padlock_08s.jpg	7	-1	1	0	padlock_08s.jpg	0	0.0	0	96.5687878391473	96.6187682368327	0.0499803976854309	148200
148.3	50	438	0	0	bark	74	129	1	stimuli\bark\bark_07s.jpg	6	-1	1	0	bark_07s.jpg	0	0.0	0	96.6687934955116	96.7187751122983	0.0499816167866811	148300
148.4	50	439	0	0	clover	366	130	1	stimuli\clover\clover_02s.jpg	1	-1	1	0	clover_02s.jpg	0	0.0	0	96.7687981766649	96.818772722967	0.049974546302110005	148400
148.5	50	440	0	0	curling_iron	463	131	1	stimuli\curling_iron\curling_iron_12s.jpg	11	-1	1	0	curling_iron_12s.jpg	0	0.0	0	96.8687967625447	96.9187761850189	0.04997942247428	148500
148.6	50	441	0	0	engine	557	132	1	stimuli\engine\engine_06s.jpg	5	-1	1	0	engine_06s.jpg	0	0.0	0	96.9687977865105	97.01877964718729	0.0499818606767803	148600
148.7	50	442	0	0	grater	708	133	1	stimuli\grater\grater_12s.jpg	11	-1	1	0	grater_12s.jpg	0	0.0	0	97.0688031991012	97.1187882291852	0.0499850300839171	148700
148.8	50	443	0	0	panda	1105	134	1	stimuli\panda\panda_07s.jpg	6	-1	1	0	panda_07s.jpg	0	0.0	0	97.1688061736058	97.2187853523064	0.0499791787005961	148800
148.9	50	444	0	0	tupperware	1729	135	1	stimuli\tupperware\tupperware_08s.jpg	7	-1	1	0	tupperware_08s.jpg	0	0.0	0	97.26880524714942	97.3187873514835	0.0499821043340489	148900
149.0	50	445	0	0	motherboard	1024	136	1	stimuli\motherboard\motherboard_04s.jpg	3	-1	1	0	motherboard_04s.jpg	0	0.0	0	97.3688072463265	97.41878618125341	0.0499789349269122	149000
149.1	50	446	0	0	ticktacktoe	1657	137	1	stimuli\ticktacktoe\ticktacktoe_10s.jpg	9	-1	1	0	ticktacktoe_10s.jpg	0	0.0	0	97.4688111960422	97.5187940319302	0.0499828358879313	149100
149.2	50	447	0	0	chihuahua	326	138	1	stimuli\chihuahua\chihuahua_02s.jpg	1	-1	1	0	chihuahua_02s.jpg	0	0.0	0	97.5688141705468	97.6187982254196	0.0499840548727661	149200
149.3	50	448	0	0	hotdog	805	139	1	stimuli\hotdog\hotdog_05s.jpg	4	-1	1	0	hotdog_05s.jpg	0	0.0	0	97.66881641361401	97.71877803804821	0.0499616244342178	149300
149.4	50	449	0	0	cufflink	458	140	1	stimuli\cufflink\cufflink_02s.jpg	1	-1	1	0	cufflink_02s.jpg	0	0.0	0	97.76880305283701	97.8187839381862	0.0499808853492141	149400
149.5	50	450	0	0	umbrella	1743	141	1	stimuli\umbrella\umbrella_02s.jpg	1	-1	1	0	umbrella_02s.jpg	0	0.0	0	97.86880480824041	97.918782524066	0.049977715825661996	149500
149.6	50	451	0	0	jar	840	142	1	stimuli\jar\jar_12s.jpg	11	-1	1	0	jar_12s.jpg	0	0.0	0	97.9688099770574	98.01878623000809	0.0499762529507279	149600
149.7	50	452	0	0	hook2	794	143	1	stimuli\hook2\hook2_07s.jpg	6	-1	1	0	hook2_07s.jpg	0	0.0	0	98.0688063686248	98.1187889606226	0.0499825919978321	149700
149.8	50	453	0	0	cape	266	144	1	stimuli\cape\cape_10s.jpg	9	-1	1	0	cape_10s.jpg	0	0.0	0	98.1688083679182	98.2187914474634	0.0499830795451999	149800
149.9	50	454	0	0	slug	1472	145	1	stimuli\slug\slug_08s.jpg	7	-1	1	0	slug_08s.jpg	0	0.0	0	98.2688432813156	98.3187953971792	0.0499521158635616	149900
150.0	50	455	0	0	tongs	1674	146	1	stimuli\tongs\tongs_09s.jpg	8	-1	1	0	tongs_09s.jpg	0	0.0	0	98.36883357772601	98.41880861169192	0.0499750339658931	150000
150.1	50	456	0	0	cooler	403	147	1	stimuli\cooler\cooler_06s.jpg	5	-1	1	0	cooler_06s.jpg	0	0.0	0	98.4688360645669	98.51881792524358	0.0499818606767803	150100
150.2	50	457	0	0	sling	1466	148	1	stimuli\sling\sling_04s.jpg	3	-1	1	0	sling_04s.jpg	0	0.0	0	98.5688212410314	98.61881724256091	0.0499960015295073	150200
150.3	50	458	0	0	almond	13	149	1	stimuli\almond\almond_09s.jpg	8	-1	1	0	almond_09s.jpg	0	0.0	0	98.66882738494309	98.7188187541906	0.0499913692474365	150300
150.4	50	459	0	0	hearse	771	150	1	stimuli\hearse\hearse_04s.jpg	3	-1	1	0	hearse_04s.jpg	0	0.0	0	98.768841574667	98.81882416666491	0.0499825919978321	150400
150.5	50	460	0	0	patty	1126	151	1	stimuli\patty\patty_12s.jpg	11	-1	1	0	patty_12s.jpg	0	0.0	0	98.8688464995939	98.9188156821765	0.0499691825825721	150500
150.6	50	461	0	0	photograph	1164	152	1	stimuli\photograph\photograph_05s.jpg	4	-1	1	0	photograph_05s.jpg	0	0.0	0	98.9688453293638	99.0188323099865	0.0499869806226343	150600
150.7	50	462	0	0	router	1336	153	1	stimuli\router\router_02s.jpg	1	-1	1	0	router_02s.jpg	0	0.0	0	99.06885269237681	99.1188162672333	0.0499635748565197	150700
150.8	50	463	0	0	mousetrap	1029	154	1	stimuli\mousetrap\mousetrap_10n.jpg	9	-1	1	0	mousetrap_10n.jpg	0	0.0	0	99.16883981926371	99.21883752744179	0.0499977081781253	150800
150.9	50	464	0	0	grape	702	155	1	stimuli\grape\grape_04s.jpg	3	-1	1	0	grape_04s.jpg	0	0.0	0	99.26885522797241	99.3188361133216	0.0499808853492141	150900
151.0	50	465	0	0	lumber	949	156	1	stimuli\lumber\lumber_03s.jpg	2	-1	1	0	lumber_03s.jpg	0	0.0	0	99.36886112822691	99.41882884781809	0.0499677195912227	151000
151.1	50	466	0	0	wheelbarrow	1807	157	1	stimuli\wheelbarrow\wheelbarrow_12s.jpg	11	-1	1	0	wheelbarrow_12s.jpg	0	0.0	0	99.4688465483487	99.5188235328533	0.0499769845046103	151100
151.2	50	467	0	0	rosary	1333	158	1	stimuli\rosary\rosary_03s.jpg	2	-1	1	0	rosary_03s.jpg	0	0.0	0	99.568846109556	99.6188274824526	0.0499813728965819	151200
151.3	50	468	0	0	costume	419	159	1	stimuli\costume\costume_02s.jpg	1	-1	1	0	costume_02s.jpg	0	0.0	0	99.66886273736601	99.71883362648079	0.0499708891147748	151300
151.4	50	469	0	0	brooch	202	160	1	stimuli\brooch\brooch_02s.jpg	1	-1	1	0	brooch_02s.jpg	0	0.0	0	99.76885278988631	99.8188217285788	0.0499689386924729	151400
151.5	50	470	0	0	train_set	1700	161	1	stimuli\train_set\train_set_05s.jpg	4	-1	1	0	train_set_05s.jpg	0	0.0	0	99.86885527672709	99.91886346868709	0.0500081919599324	151500
151.6	50	471	0	0	candelabra	252	162	1	stimuli\candelabra\candelabra_01b.jpg	0	-1	1	0	candelabra_01b.jpg	0	0.0	0	99.9688589826692	100.018843037542	0.0499840548727661	151600
151.7	50	472	0	0	tractor	1695	163	1	stimuli\tractor\tractor_05n.jpg	4	-1	1	0	tractor_05n.jpg	0	0.0	0	100.06885854376	100.118838210125	0.0499796663643792	151700
151.8	50	473	0	0	dogfood	496	164	1	stimuli\dogfood\dogfood_06s.jpg	5	-1	1	0	dogfood_06s.jpg	0	0.0	0	100.168887362001	100.218857763568	0.04997040156740701	151800
151.9	50	474	0	0	horseshoe	799	165	1	stimuli\horseshoe\horseshoe_12s.jpg	11	-1	1	0	horseshoe_12s.jpg	0	0.0	0	100.268882534583	100.318865614245	0.0499830796616152	151900
152.0	50	475	0	0	spring_roll	1521	166	1	stimuli\spring_roll\spring_roll_08s.jpg	7	-1	1	0	spring_roll_08s.jpg	0	0.0	0	100.36888258333799	100.418865662999	0.0499830796616152	152000
152.1	50	476	0	0	fork	634	167	1	stimuli\fork\fork_08s.jpg	7	-1	1	0	fork_08s.jpg	0	0.0	0	100.468886533054	100.518869125168	0.0499825921142474	152100
152.2	50	477	0	0	pajamas	1099	168	1	stimuli\pajamas\pajamas_12s.jpg	11	-1	1	0	pajamas_12s.jpg	0	0.0	0	100.56888731324601	100.618869173923	0.0499818606767803	152200
152.3	50	478	0	0	skunk	1459	169	1	stimuli\skunk\skunk_09s.jpg	8	-1	1	0	skunk_09s.jpg	0	0.0	0	100.668871270609	100.71887214831101	0.0500008777016774	152300
152.4	50	479	0	0	dynamite	536	170	1	stimuli\dynamite\dynamite_09s.jpg	8	-1	1	0	dynamite_09s.jpg	0	0.0	0	100.768892043154	100.818873172393	0.0499811292393133	152400
152.5	50	480	0	0	applesauce	32	171	1	stimuli\applesauce\applesauce_11s.jpg	10	-1	1	0	applesauce_11s.jpg	0	0.0	0	100.868895749096	100.91886420012501	0.0499684510286897	152500
152.6	50	481	0	0	grenade	713	172	1	stimuli\grenade\grenade_03s.jpg	2	-1	1	0	grenade_03s.jpg	0	0.0	0	100.968887995929	101.018863029894	0.0499750339658931	152600
152.7	50	482	0	0	mud	1033	173	1	stimuli\mud\mud_12s.jpg	11	-1	1	0	mud_12s.jpg	0	0.0	0	101.068886581808	101.118865272962	0.0499786911532283	152700
152.8	50	483	0	0	boot	169	174	1	stimuli\boot\boot_03s.jpg	2	-1	1	0	boot_03s.jpg	0	0.0	0	101.16891076776699	101.21888507029499	0.0499743025284261	152800
152.9	50	484	0	0	barrel	76	175	1	stimuli\barrel\barrel_08s.jpg	7	-1	1	0	barrel_08s.jpg	0	0.0	0	101.268892287044	101.31889023899599	0.0499979519518092	152900
153.0	50	485	0	0	squirt_gun	1530	176	1	stimuli\squirt_gun\squirt_gun_12s.jpg	11	-1	1	0	squirt_gun_12s.jpg	0	0.0	0	101.368906720541	101.41887029539801	0.0499635748565197	153000
153.1	50	486	0	0	granite	700	177	1	stimuli\granite\granite_06s.jpg	5	-1	1	0	granite_06s.jpg	0	0.0	0	101.468896529288	101.51887741463699	0.0499808853492141	153100
153.2	50	487	0	0	payphone	1127	178	1	stimuli\payphone\payphone_04s.jpg	3	-1	1	0	payphone_04s.jpg	0	0.0	0	101.568893896183	101.618874050095	0.049980153911747004	153200
153.3	50	488	0	0	thermostat	1648	179	1	stimuli\thermostat\thermostat_09s.jpg	8	-1	1	0	thermostat_09s.jpg	0	0.0	0	101.668926859158	101.718897260725	0.04997040156740701	153300
153.4	50	489	0	0	slot_machine	1470	180	1	stimuli\slot_machine\slot_machine_07s.jpg	6	-1	1	0	slot_machine_07s.jpg	0	0.0	0	101.76892105653	101.81890023523	0.0499791787005961	153400
153.5	50	490	0	0	microphone	998	181	1	stimuli\microphone\microphone_07s.jpg	6	-1	1	0	microphone_07s.jpg	0	0.0	0	101.86890598910401	101.91889077541401	0.0499847863102332	153500
153.6	50	491	0	0	balance_beam	58	182	1	stimuli\balance_beam\balance_beam_10s.jpg	9	-1	1	0	balance_beam_10s.jpg	0	0.0	0	101.968910182593	102.018907646998	0.0499974644044414	153600
153.7	50	492	0	0	crowbar	447	183	1	stimuli\crowbar\crowbar_03s.jpg	2	-1	1	0	crowbar_03s.jpg	0	0.0	0	102.068929004599	102.1189081833	0.0499791787005961	153700
153.8	50	493	0	0	snail	1476	184	1	stimuli\snail\snail_09s.jpg	8	-1	1	0	snail_09s.jpg	0	0.0	0	102.168902478181	102.21889384742799	0.0499913692474365	153800
153.9	50	494	0	0	kneepad	878	185	1	stimuli\kneepad\kneepad_09s.jpg	8	-1	1	0	kneepad_09s.jpg	0	0.0	0	102.26891544892	102.318881949526	0.0499665006063879	153900
154.0	50	495	0	0	swab	1590	186	1	stimuli\swab\swab_04s.jpg	3	-1	1	0	swab_04s.jpg	0	0.0	0	102.36891501001101	102.41892027633699	0.0500052663264796	154000
154.1	50	496	0	0	cleaver	354	187	1	stimuli\cleaver\cleaver_09s.jpg	8	-1	1	0	cleaver_09s.jpg	0	0.0	0	102.46893578255501	102.518916667905	0.0499808853492141	154100
154.2	50	497	0	0	owl	1091	188	1	stimuli\owl\owl_09s.jpg	8	-1	1	0	owl_09s.jpg	0	0.0	0	102.568937294185	102.618917448097	0.049980153911747004	154200
154.3	50	498	0	0	goggles	686	189	1	stimuli\goggles\goggles_01b.jpg	0	-1	1	0	goggles_01b.jpg	0	0.0	0	102.66894246288601	102.718922860688	0.0499803978018463	154300
154.4	50	499	0	0	sweater	1592	190	1	stimuli\sweater\sweater_02s.jpg	1	-1	1	0	sweater_02s.jpg	0	0.0	0	102.768942755531	102.81892754184099	0.0499847863102332	154400
154.5	50	500	0	0	man	963	191	1	stimuli\man\man_07s.jpg	6	-1	1	0	man_07s.jpg	0	0.0	0	102.86894402327	102.91892612772101	0.0499821044504642	154500
154.6	50	501	0	0	champagne	304	192	1	stimuli\champagne\champagne_03s.jpg	2	-1	1	0	champagne_03s.jpg	0	0.0	0	102.968948948197	103.01890959741999	0.0499606492230669	154600
154.7	50	502	0	0	net	1057	193	1	stimuli\net\net_04s.jpg	3	-1	1	0	net_04s.jpg	0	0.0	0	103.068938269396	103.11890696431499	0.049968694918789	154700
154.8	50	503	0	0	spaghetti	1503	194	1	stimuli\spaghetti\spaghetti_06s.jpg	5	-1	1	0	spaghetti_06s.jpg	0	0.0	0	103.168941731448	103.218942365376	0.0500006339279935	154800
154.9	50	504	0	0	latte	901	195	1	stimuli\latte\latte_10s.jpg	9	-1	1	0	latte_10s.jpg	0	0.0	0	103.268939098343	103.31892364088002	0.0499845425365493	154900
155.0	50	505	0	0	mitten	1008	196	1	stimuli\mitten\mitten_02s.jpg	1	-1	1	0	mitten_02s.jpg	0	0.0	0	103.368965234724	103.41891881346201	0.0499535787384957	155000
155.1	50	506	0	0	pinwheel	1185	197	1	stimuli\pinwheel\pinwheel_07s.jpg	6	-1	1	0	pinwheel_07s.jpg	0	0.0	0	103.46894821687599	103.518925445038	0.0499772281618789	155100
155.2	50	507	0	0	bow3	176	198	1	stimuli\bow3\bow3_01b.jpg	0	-1	1	0	bow3_01b.jpg	0	0.0	0	103.568951191264	103.618918910972	0.049967719707638	155200
155.3	50	508	0	0	crystal1	453	199	1	stimuli\crystal1\crystal1_04s.jpg	3	-1	1	0	crystal1_04s.jpg	0	0.0	0	103.66897245147301	103.71894675400101	0.0499743025284261	155300
155.4	50	509	0	0	laser_pointer	899	200	1	stimuli\laser_pointer\laser_pointer_07s.jpg	6	-1	1	0	laser_pointer_07s.jpg	0	0.0	0	103.76894056121799	103.81891803327	0.0499774720519781	155400
155.5	50	510	0	0	orange	1078	201	1	stimuli\orange\orange_08s.jpg	7	-1	1	0	orange_08s.jpg	0	0.0	0	103.86895426327801	103.91893685527599	0.0499825919978321	155500
155.6	50	511	0	0	pendulum	1144	202	1	stimuli\pendulum\pendulum_08s.jpg	7	-1	1	0	pendulum_08s.jpg	0	0.0	0	103.96896089485399	104.01894080499201	0.0499799101380631	155600
155.7	50	512	0	0	firecracker	594	203	1	stimuli\firecracker\firecracker_11s.jpg	10	-1	1	0	firecracker_11s.jpg	0	0.0	0	104.06895948085	104.118939634762	0.049980153911747004	155700
155.8	50	513	0	0	pepper2	1150	204	1	stimuli\pepper2\pepper2_08s.jpg	7	-1	1	0	pepper2_08s.jpg	0	0.0	0	104.168980009505	104.218943096814	0.0499630873091519	155800
155.9	50	514	0	0	ribbon	1308	205	1	stimuli\ribbon\ribbon_08s.jpg	7	-1	1	0	ribbon_08s.jpg	0	0.0	0	104.268980545923	104.31896167504601	0.04998112912289799	155900
156.0	50	515	0	0	chisel	336	206	1	stimuli\chisel\chisel_12s.jpg	11	-1	1	0	chisel_12s.jpg	0	0.0	0	104.36898376420099	104.418965868652	0.0499821044504642	156000
156.1	50	516	0	0	octopus	1070	207	1	stimuli\octopus\octopus_03s.jpg	2	-1	1	0	octopus_03s.jpg	0	0.0	0	104.468987713917	104.518952264101	0.049964550184086	156100
156.2	50	517	0	0	spur	1525	208	1	stimuli\spur\spur_01b.jpg	0	-1	1	0	spur_01b.jpg	0	0.0	0	104.56898873788299	104.618969135685	0.0499803978018463	156200
156.3	50	518	0	0	zebra	1851	209	1	stimuli\zebra\zebra_05s.jpg	4	-1	1	0	zebra_05s.jpg	0	0.0	0	104.668993175263	104.71897576726	0.0499825919978321	156300
156.4	50	519	0	0	duck	525	210	1	stimuli\duck\duck_09s.jpg	8	-1	1	0	duck_09s.jpg	0	0.0	0	104.768994686892	104.818957530311	0.0499628434190527	156400
156.5	50	520	0	0	sunglasses	1585	211	1	stimuli\sunglasses\sunglasses_10s.jpg	9	-1	1	0	sunglasses_10s.jpg	0	0.0	0	104.868994247983	104.91897781530899	0.0499835673253983	156500
156.6	50	521	0	0	hip	780	212	1	stimuli\hip\hip_06s.jpg	5	-1	1	0	hip_06s.jpg	0	0.0	0	104.968999660574	105.018962260219	0.0499625996453688	156600
156.7	50	522	0	0	puffin	1248	213	1	stimuli\puffin\puffin_02s.jpg	1	-1	1	0	puffin_02s.jpg	0	0.0	0	105.06899970932899	105.11898547084999	0.0499857615213841	156700
156.8	50	523	0	0	cow	426	214	1	stimuli\cow\cow_04s.jpg	3	-1	1	0	cow_04s.jpg	0	0.0	0	105.16900341527099	105.218986007269	0.0499825919978321	156800
156.9	50	524	0	0	flyswatter	623	215	1	stimuli\flyswatter\flyswatter_11s.jpg	10	-1	1	0	flyswatter_11s.jpg	0	0.0	0	105.26900541444799	105.318985568359	0.049980153911747004	156900
157.0	50	525	0	0	caviar	289	216	1	stimuli\caviar\caviar_06s.jpg	5	-1	1	0	caviar_06s.jpg	0	0.0	0	105.36900936416401	105.418969525723	0.0499601615592837	157000
157.1	50	526	0	0	paper_towel	1115	217	1	stimuli\paper_towel\paper_towel_03s.jpg	2	-1	1	0	paper_towel_03s.jpg	0	0.0	0	105.468995759613	105.518965673517	0.0499699139036238	157100
157.2	50	527	0	0	oilcan	1073	218	1	stimuli\oilcan\oilcan_06s.jpg	5	-1	1	0	oilcan_06s.jpg	0	0.0	0	105.56899897789101	105.618978644256	0.0499796663643792	157200
157.3	50	528	0	0	eraser	559	219	1	stimuli\eraser\eraser_09s.jpg	8	-1	1	0	eraser_09s.jpg	0	0.0	0	105.669027796132	105.718998929136	0.049971133004874	157300
157.4	50	529	0	0	sticker	1553	220	1	stimuli\sticker\sticker_12s.jpg	11	-1	1	0	sticker_12s.jpg	0	0.0	0	105.769018092542	105.818999465555	0.0499813730129972	157400
157.5	50	530	0	0	mop	1019	221	1	stimuli\mop\mop_10s.jpg	9	-1	1	0	mop_10s.jpg	0	0.0	0	105.86901936039801	105.91898512956699	0.0499657691689208	157500
157.6	50	531	0	0	corkscrew	411	222	1	stimuli\corkscrew\corkscrew_01b.jpg	0	-1	1	0	corkscrew_01b.jpg	0	0.0	0	105.969024529099	106.01901029062	0.0499857615213841	157600
157.7	50	532	0	0	javelin	841	223	1	stimuli\javelin\javelin_09s.jpg	8	-1	1	0	javelin_09s.jpg	0	0.0	0	106.06902311497801	106.119004000328	0.0499808853492141	157700
157.8	50	533	0	0	paintbrush	1097	224	1	stimuli\paintbrush\paintbrush_02s.jpg	1	-1	1	0	paintbrush_02s.jpg	0	0.0	0	106.169024626608	106.21901355765301	0.0499889310449362	157800
157.9	50	534	0	0	cable	234	225	1	stimuli\cable\cable_01b.jpg	0	-1	1	0	cable_01b.jpg	0	0.0	0	106.26903077063601	106.31900873023599	0.0499779595993459	157900
158.0	50	535	0	0	mousse	1030	226	1	stimuli\mousse\mousse_02s.jpg	1	-1	1	0	mousse_02s.jpg	0	0.0	0	106.369030819391	106.41901121707599	0.0499803976854309	158000
158.1	50	536	0	0	airplane	10	227	1	stimuli\airplane\airplane_06n.jpg	5	-1	1	0	airplane_06n.jpg	0	0.0	0	106.469034281443	106.51901394780701	0.0499796663643792	158100
158.2	50	537	0	0	pretzel	1239	228	1	stimuli\pretzel\pretzel_07s.jpg	6	-1	1	0	pretzel_07s.jpg	0	0.0	0	106.569033354986	106.619014484109	0.04998112912289799	158200
158.3	50	538	0	0	heater	772	229	1	stimuli\heater\heater_11s.jpg	10	-1	1	0	heater_11s.jpg	0	0.0	0	106.669041449437	106.71902135957501	0.0499799101380631	158300
158.4	50	539	0	0	bagpipe	56	230	1	stimuli\bagpipe\bagpipe_04s.jpg	3	-1	1	0	bagpipe_04s.jpg	0	0.0	0	106.769038328668	106.819022383541	0.0499840548727661	158400
158.5	50	540	0	0	palm_tree	1102	231	1	stimuli\palm_tree\palm_tree_06s.jpg	5	-1	1	0	palm_tree_06s.jpg	0	0.0	0	106.869042766048	106.91902950277999	0.0499867367325351	158500
158.6	50	541	0	0	bathrobe	90	232	1	stimuli\bathrobe\bathrobe_02s.jpg	1	-1	1	0	bathrobe_02s.jpg	0	0.0	0	106.969051591936	107.0190254068	0.0499738148646429	158600
158.7	50	542	0	0	nest	1056	233	1	stimuli\nest\nest_02s.jpg	1	-1	1	0	nest_02s.jpg	0	0.0	0	107.06903237977501	107.119013021351	0.0499806415755302	158700
158.8	50	543	0	0	wafer	1769	234	1	stimuli\wafer\wafer_08s.jpg	7	-1	1	0	wafer_08s.jpg	0	0.0	0	107.169042180874	107.219016483403	0.0499743025284261	158800
158.9	50	544	0	0	paper_plate	1114	235	1	stimuli\paper_plate\paper_plate_03s.jpg	2	-1	1	0	paper_plate_03s.jpg	0	0.0	0	107.269036622019	107.319017995032	0.0499813730129972	158900
159.0	50	545	0	0	peppermint	1152	236	1	stimuli\peppermint\peppermint_01b.jpg	0	-1	1	0	peppermint_01b.jpg	0	0.0	0	107.369038133649	107.41902023809999	0.0499821044504642	159000
159.1	50	546	0	0	camper	249	237	1	stimuli\camper\camper_12s.jpg	11	-1	1	0	camper_12s.jpg	0	0.0	0	107.469038426178	107.519001757377	0.0499633311992511	159100
159.2	50	547	0	0	teapot	1634	238	1	stimuli\teapot\teapot_11s.jpg	10	-1	1	0	teapot_11s.jpg	0	0.0	0	107.569067732082	107.61904593557101	0.0499782034894451	159200
159.3	50	548	0	0	braid	190	239	1	stimuli\braid\braid_08s.jpg	7	-1	1	0	braid_08s.jpg	0	0.0	0	107.669071681798	107.71902404143499	0.0499523596372455	159300
159.4	50	549	0	0	christmas_tree	341	240	1	stimuli\christmas_tree\christmas_tree_06s.jpg	5	-1	1	0	christmas_tree_06s.jpg	0	0.0	0	107.76905198197299	107.819031160674	0.0499791787005961	159400
159.5	50	550	0	0	bison	134	241	1	stimuli\bison\bison_04n.jpg	3	-1	1	0	bison_04n.jpg	0	0.0	0	107.869051543181	107.91903608560101	0.0499845424201339	159500
159.6	50	551	0	0	wire_cutters	1829	242	1	stimuli\wire_cutters\wire_cutters_07s.jpg	6	-1	1	0	wire_cutters_07s.jpg	0	0.0	0	107.969057443319	108.019034915371	0.0499774720519781	159600
159.7	50	552	0	0	lobster	939	243	1	stimuli\lobster\lobster_04s.jpg	3	-1	1	0	lobster_04s.jpg	0	0.0	0	108.06906334357299	108.119041059399	0.049977715825661996	159700
159.8	50	553	0	0	slipper	1468	244	1	stimuli\slipper\slipper_01b.jpg	0	-1	1	0	slipper_01b.jpg	0	0.0	0	108.169063392328	108.219070609077	0.0500072167487815	159800
159.9	50	554	0	0	incubator	827	245	1	stimuli\incubator\incubator_09s.jpg	8	-1	1	0	incubator_09s.jpg	0	0.0	0	108.26908489631	108.31904481397899	0.0499599176691845	159900
160.0	50	555	0	0	tadpole	1614	246	1	stimuli\tadpole\tadpole_11s.jpg	10	-1	1	0	tadpole_11s.jpg	0	0.0	0	108.36908275075301	108.41906558652398	0.049982835771516	160000
160.1	50	556	0	0	videogame	1762	247	1	stimuli\videogame\videogame_06s.jpg	5	-1	1	0	videogame_06s.jpg	0	0.0	0	108.469063294819	108.51904881245001	0.0499855176312849	160100
160.2	50	557	0	0	stirrup	1558	248	1	stimuli\stirrup\stirrup_02s.jpg	1	-1	1	1	stirrup_02s.jpg	0	0.0	0	108.569070901605	108.61905495647801	0.0499840548727661	160200
160.3	50	558	0	0	mixer	1009	249	1	stimuli\mixer\mixer_01b.jpg	0	-1	1	0	mixer_01b.jpg	0	0.0	0	108.66907704563299	108.71905646810801	0.04997942247428	160300
160.4	50	559	0	0	tomato_sauce	1673	250	1	stimuli\tomato_sauce\tomato_sauce_08s.jpg	7	-1	1	0	tomato_sauce_08s.jpg	0	0.0	0	108.769079288701	108.81906041782301	0.04998112912289799	160400
160.5	50	560	0	0	gorilla	695	251	1	stimuli\gorilla\gorilla_03s.jpg	2	-1	1	0	gorilla_03s.jpg	0	0.0	0	108.86908226308901	108.919059491367	0.0499772282782942	160500
160.6	50	561	0	0	ladybug	888	252	1	stimuli\ladybug\ladybug_05s.jpg	4	-1	1	0	ladybug_05s.jpg	0	0.0	0	108.969082311844	109.019062465755	0.049980153911747004	160600
160.7	50	562	0	0	marker	975	253	1	stimuli\marker\marker_12s.jpg	11	-1	1	0	marker_12s.jpg	1	0.49217957619112	1	109.069085286348	109.11906495271299	0.0499796663643792	160700
160.8	50	563	0	0	olive	1075	254	1	stimuli\olive\olive_02s.jpg	1	-1	1	0	olive_02s.jpg	0	0.0	0	109.16908777318899	109.21906695189001	0.0499791787005961	160800
160.9	50	564	0	0	funnel	649	255	1	stimuli\funnel\funnel_10s.jpg	9	-1	1	0	funnel_10s.jpg	0	0.0	0	109.26909026003	109.319068707293	0.0499784472631291	160900
161.0	50	565	0	0	bunkbed	222	256	1	stimuli\bunkbed\bunkbed_11s.jpg	10	-1	1	0	bunkbed_11s.jpg	0	0.0	0	109.369090308785	109.41909459989999	0.0500042911153287	161000
161.1	50	566	0	0	compass	392	257	1	stimuli\compass\compass_05s.jpg	4	-1	1	0	compass_05s.jpg	0	0.0	0	109.469111812767	109.519077338162	0.0499655253952369	161100
161.2	50	567	0	0	van	1752	258	1	stimuli\van\van_08s.jpg	7	-1	1	0	van_08s.jpg	0	0.0	0	109.569114055834	109.619095184957	0.04998112912289799	161200
161.3	50	568	0	0	rabbit	1265	259	1	stimuli\rabbit\rabbit_03s.jpg	2	-1	1	0	rabbit_03s.jpg	0	0.0	0	109.669116542675	109.719074022374	0.0499574796995148	161300
161.4	50	569	0	0	walker2	1774	260	1	stimuli\walker2\walker2_11s.jpg	10	-1	1	0	walker2_11s.jpg	0	0.0	0	109.769101475249	109.81908089784001	0.0499794225906953	161400
161.5	50	570	0	0	dumpling	532	261	1	stimuli\dumpling\dumpling_04s.jpg	3	-1	1	0	dumpling_04s.jpg	0	0.0	0	109.869103718316	109.91911800555	0.0500142872333527	161500
161.6	50	571	0	0	stove1	1563	262	1	stimuli\stove1\stove1_06s.jpg	5	-1	1	0	stove1_06s.jpg	0	0.0	0	109.969103035633	110.01908855338101	0.0499855177477002	161600
161.7	50	572	0	0	baby	46	263	1	stimuli\baby\baby_11s.jpg	10	-1	1	0	baby_11s.jpg	0	0.0	0	110.069115518709	110.119096160284	0.0499806415755302	161700
161.8	50	573	0	0	barbell	72	264	1	stimuli\barbell\barbell_11s.jpg	10	-1	1	0	barbell_11s.jpg	0	0.0	0	110.169112885604	110.219081824296	0.0499689386924729	161800
161.9	50	574	0	0	contact_lens	397	265	1	stimuli\contact_lens\contact_lens_05s.jpg	4	-1	1	0	contact_lens_05s.jpg	0	0.0	0	110.269111715257	110.31908187305099	0.049970157793723	161900
162.0	50	575	0	0	chessboard	318	266	1	stimuli\chessboard\chessboard_11s.jpg	10	-1	1	0	chessboard_11s.jpg	0	0.0	0	110.36911737162201	110.419132634066	0.0500152624445036	162000
162.1	50	576	0	0	curtain	465	267	1	stimuli\curtain\curtain_04s.jpg	3	-1	1	0	curtain_04s.jpg	0	0.0	0	110.46913838793999	110.51911732286699	0.0499789349269122	162100
162.2	50	577	0	0	ant	24	268	1	stimuli\ant\ant_11s.jpg	10	-1	1	0	ant_11s.jpg	0	0.0	0	110.569140631007	110.619114445988	0.0499738149810582	162200
162.3	50	578	0	0	fig	581	269	1	stimuli\fig\fig_04s.jpg	3	-1	1	0	fig_04s.jpg	0	0.0	0	110.669140923652	110.71912327187599	0.0499823482241482	162300
162.4	50	579	0	0	garter	659	270	1	stimuli\garter\garter_07s.jpg	6	-1	1	0	garter_07s.jpg	0	0.0	0	110.76914536091499	110.819124052068	0.0499786911532283	162400
162.5	50	580	0	0	gun	727	271	1	stimuli\gun\gun_02s.jpg	1	-1	1	0	gun_02s.jpg	0	0.0	0	110.869134682114	110.91913092741699	0.0499962453031912	162500
162.6	50	581	0	0	dollhouse	500	272	1	stimuli\dollhouse\dollhouse_04s.jpg	3	-1	1	0	dollhouse_04s.jpg	0	0.0	0	110.969155698433	111.019130732398	0.0499750339658931	162600
162.7	50	582	0	0	rack2	1269	273	1	stimuli\rack2\rack2_07s.jpg	6	-1	1	0	rack2_07s.jpg	0	0.0	0	111.06915355287501	111.119131512591	0.0499779597157612	162700
162.8	50	583	0	0	mosquito_net	1021	274	1	stimuli\mosquito_net\mosquito_net_07s.jpg	6	-1	1	0	mosquito_net_07s.jpg	0	0.0	0	111.169154333067	111.219135218533	0.0499808854656294	162800
162.9	50	584	0	0	bull	214	275	1	stimuli\bull\bull_04s.jpg	3	-1	1	0	bull_04s.jpg	0	0.0	0	111.269154869486	111.319122345303	0.0499674758175388	162900
163.0	50	585	0	0	stiletto	1554	276	1	stimuli\stiletto\stiletto_10s.jpg	9	-1	1	0	stiletto_10s.jpg	0	0.0	0	111.369159062975	111.41913872933901	0.0499796663643792	163000
163.1	50	586	0	0	pizza	1192	277	1	stimuli\pizza\pizza_06s.jpg	5	-1	1	0	pizza_06s.jpg	0	0.0	0	111.469161549816	111.519142191391	0.0499806415755302	163100
163.2	50	587	0	0	can_opener	251	278	1	stimuli\can_opener\can_opener_01b.jpg	0	-1	1	0	can_opener_01b.jpg	0	0.0	0	111.56916574342199	111.619133219239	0.0499674758175388	163200
163.3	50	588	0	0	nacho	1045	279	1	stimuli\nacho\nacho_01b.jpg	0	-1	1	0	nacho_01b.jpg	0	0.0	0	111.66916749882499	111.719146677526	0.0499791787005961	163300
163.4	50	589	0	0	solar_panel	1493	280	1	stimuli\solar_panel\solar_panel_06s.jpg	5	-1	1	0	solar_panel_06s.jpg	0	0.0	0	111.76916779135401	111.81913502339701	0.0499672320438549	163400
163.5	50	590	0	0	coop	404	281	1	stimuli\coop\coop_03s.jpg	2	-1	1	0	coop_03s.jpg	0	0.0	0	111.869151748717	111.919157015043	0.0500052663264796	163500
163.6	50	591	0	0	ottoman	1086	282	1	stimuli\ottoman\ottoman_07s.jpg	6	-1	1	0	ottoman_07s.jpg	0	0.0	0	111.969176178449	112.01915438182199	0.0499782033730298	163600
163.7	50	592	0	0	landmine	894	283	1	stimuli\landmine\landmine_02s.jpg	1	-1	1	0	landmine_02s.jpg	0	0.0	0	112.069161842461	112.119171984959	0.0500101424986497	163700
163.8	50	593	0	0	backdrop	47	284	1	stimuli\backdrop\backdrop_09s.jpg	8	-1	1	0	backdrop_09s.jpg	0	0.0	0	112.169182615005	112.219163988018	0.0499813730129972	163800
163.9	50	594	0	0	headset	769	285	1	stimuli\headset\headset_09s.jpg	8	-1	1	0	headset_09s.jpg	0	0.0	0	112.269184126635	112.31916428054701	0.049980153911747004	163900
164.0	50	595	0	0	jersey	846	286	1	stimuli\jersey\jersey_04s.jpg	3	-1	1	0	jersey_04s.jpg	0	0.0	0	112.369197097258	112.41914043598801	0.0499433387303725	164000
164.1	50	596	0	0	ostrich	1084	287	1	stimuli\ostrich\ostrich_08s.jpg	7	-1	1	0	ostrich_08s.jpg	0	0.0	0	112.469191294629	112.51917047333	0.0499791787005961	164100
164.2	50	597	0	0	chili	327	288	1	stimuli\chili\chili_03s.jpg	2	-1	1	0	chili_03s.jpg	0	0.0	0	112.569179884274	112.619152967818	0.0499730835435912	164200
164.3	50	598	0	0	ring	1313	289	1	stimuli\ring\ring_06s.jpg	5	-1	1	0	ring_06s.jpg	0	0.0	0	112.669191148249	112.71918105462099	0.0499899063725024	164300
164.4	50	599	0	0	corset	418	290	1	stimuli\corset\corset_04s.jpg	3	-1	1	0	corset_04s.jpg	0	0.0	0	112.769194854191	112.819177446188	0.0499825919978321	164400
164.5	50	600	0	0	pacifier	1093	291	1	stimuli\pacifier\pacifier_04s.jpg	3	-1	1	0	pacifier_04s.jpg	0	0.0	0	112.86920026678101	112.919180176919	0.0499799101380631	164500
164.6	50	601	0	0	satellite_dish	1361	292	1	stimuli\satellite_dish\satellite_dish_06s.jpg	5	-1	1	0	satellite_dish_06s.jpg	0	0.0	0	112.969201290747	113.019183151308	0.049981860560364993	164600
164.7	50	602	0	0	wrap	1837	293	1	stimuli\wrap\wrap_02s.jpg	1	-1	1	0	wrap_02s.jpg	0	0.0	0	113.069204021478	113.11916588968599	0.0499618682079017	164700
164.8	50	603	0	0	croissant	442	294	1	stimuli\croissant\croissant_07s.jpg	6	-1	1	0	croissant_07s.jpg	0	0.0	0	113.169215772999	113.219185687019	0.0499699140200391	164800
164.9	50	604	0	0	papaya	1111	295	1	stimuli\papaya\papaya_07s.jpg	6	-1	1	0	papaya_07s.jpg	0	0.0	0	113.269206800847	113.319186954759	0.049980153911747004	164900
165.0	50	605	0	0	pliers	1201	296	1	stimuli\pliers\pliers_12s.jpg	11	-1	1	0	pliers_12s.jpg	0	0.0	0	113.36919270863301	113.419172374997	0.0499796663643792	165000
165.1	50	606	0	0	stroller	1574	297	1	stimuli\stroller\stroller_07s.jpg	6	-1	1	0	stroller_07s.jpg	0	0.0	0	113.46919617080098	113.519181688549	0.0499855177477002	165100
165.2	50	607	0	0	deer	476	298	1	stimuli\deer\deer_02s.jpg	1	-1	1	0	deer_02s.jpg	0	0.0	0	113.56920012051701	113.619180518202	0.0499803976854309	165200
165.3	50	608	0	0	gravy	711	299	1	stimuli\gravy\gravy_05s.jpg	4	-1	1	0	gravy_05s.jpg	0	0.0	0	113.66923162061701	113.71919641457501	0.0499647939577699	165300
165.4	50	609	0	0	coat_rack	370	300	1	stimuli\coat_rack\coat_rack_06s.jpg	5	-1	1	0	coat_rack_06s.jpg	0	0.0	0	113.76922386745001	113.819202314713	0.0499784472631291	165400
165.5	50	610	0	0	fruitcake	646	301	1	stimuli\fruitcake\fruitcake_10s.jpg	9	-1	1	0	fruitcake_10s.jpg	0	0.0	0	113.869224647642	113.91920504544399	0.0499803978018463	165500
165.6	50	611	0	0	potpourri	1235	302	1	stimuli\potpourri\potpourri_09s.jpg	8	-1	1	0	potpourri_09s.jpg	0	0.0	0	113.96922591549801	114.019205337972	0.04997942247428	165600
