onset	duration	eventnumber	blocksequencenumber	isteststim	object	objectnumber	presentationnumber	sequencenumber	stim	stimnumber	teststimnumber	withinsequencenumber	istarget	stimname	response	rt	correct	time_stimon	time_stimoff	stimdur	sample
14.904	50	0	0	0	gauge	663	0	0	stimuli\gauge\gauge_09s.jpg	8	-1	0	0	gauge_09s.jpg	0	0.0	0	47.2910777049838	47.3410549331456	0.0499772281618789	14904
15.004	50	1	0	0	charger	308	1	0	stimuli\charger\charger_02s.jpg	1	-1	0	0	charger_02s.jpg	0	0.0	0	47.39107897272329	47.441057907650205	0.0499789349269122	15004
15.104	50	2	0	0	hovercraft	808	2	0	stimuli\hovercraft\hovercraft_09s.jpg	8	-1	0	0	hovercraft_09s.jpg	0	0.0	0	47.491080728243105	47.5410586878425	0.0499779595993459	15104
15.204	50	3	0	0	rosary	1333	3	0	stimuli\rosary\rosary_07s.jpg	6	-1	0	0	rosary_07s.jpg	0	0.0	0	47.59109564928799	47.6410631251056	0.0499674758175388	15204
15.304	50	4	0	0	bazooka	98	4	0	stimuli\bazooka\bazooka_10s.jpg	9	-1	0	0	bazooka_10s.jpg	0	0.0	0	47.6910878961207	47.74106902535999	0.0499811292393133	15304
15.404	50	5	0	0	blowtorch	148	5	0	stimuli\blowtorch\blowtorch_11s.jpg	10	-1	0	0	blowtorch_11s.jpg	0	0.0	0	47.7910825811559	47.841789774131	0.0507071929750964	15404
15.504	50	6	0	0	toothpick	1681	6	0	stimuli\toothpick\toothpick_08s.jpg	7	-1	0	0	toothpick_08s.jpg	0	0.0	0	47.8910850679968	47.9410661971197	0.04998112912289799	15504
15.604	50	7	0	0	paintbrush	1097	7	0	stimuli\paintbrush\paintbrush_11s.jpg	10	-1	0	0	paintbrush_11s.jpg	0	0.0	0	47.99109072436111	48.0410730725853	0.0499823482241482	15604
15.704	50	8	0	0	branch	192	8	0	stimuli\branch\branch_11s.jpg	10	-1	0	0	branch_11s.jpg	0	0.0	0	48.0910902854521	48.141069951816505	0.0499796663643792	15704
15.804	50	9	0	0	handle	748	9	0	stimuli\handle\handle_02s.jpg	1	-1	0	0	handle_02s.jpg	0	0.0	0	48.191093991394204	48.241076095844605	0.0499821044504642	15804
15.904	50	10	0	0	place_mat	1193	10	0	stimuli\place_mat\place_mat_05s.jpg	4	-1	0	0	place_mat_05s.jpg	0	0.0	0	48.291094283922604	48.3410776074743	0.0499833235517144	15904
16.004	50	11	0	0	belt	118	11	0	stimuli\belt\belt_08s.jpg	7	-1	0	0	belt_08s.jpg	0	0.0	0	48.3910979898646	48.441081557189996	0.0499835673253983	16004
16.104	50	12	0	0	mullet	1039	12	0	stimuli\mullet\mullet_05s.jpg	4	-1	0	0	mullet_05s.jpg	0	0.0	0	48.4911007205956	48.541081118281	0.0499803976854309	16104
16.204	50	13	0	0	creme_brulee	439	13	0	stimuli\creme_brulee\creme_brulee_06s.jpg	5	-1	0	0	creme_brulee_06s.jpg	0	0.0	0	48.59110125689771	48.641083848895505	0.0499825919978321	16204
16.304	50	14	0	0	barrel	76	14	0	stimuli\barrel\barrel_07s.jpg	6	-1	0	0	barrel_07s.jpg	0	0.0	0	48.6911105704494	48.741088286274994	0.049977715825661996	16304
16.404	50	15	0	0	bow3	176	15	0	stimuli\bow3\bow3_07s.jpg	6	-1	0	0	bow3_07s.jpg	0	0.0	0	48.791109400102904	48.841087847366	0.0499784472631291	16404
16.504	50	16	0	0	ladybug	888	16	0	stimuli\ladybug\ladybug_03s.jpg	2	-1	0	0	ladybug_03s.jpg	0	0.0	0	48.891113106044905	48.9410947228316	0.0499816167866811	16504
16.604	50	17	0	0	juicer2	856	17	0	stimuli\juicer2\juicer2_01b.jpg	0	-1	0	0	juicer2_01b.jpg	0	0.0	0	48.9911151053384	49.0410923335003	0.0499772281618789	16604
16.704	50	18	0	0	block	143	18	0	stimuli\block\block_01b.jpg	0	-1	0	0	block_01b.jpg	0	0.0	0	49.0911132035544	49.1410970146535	0.0499838110990822	16704
16.804	50	19	0	0	dishwashing_liquid	492	19	0	stimuli\dishwashing_liquid\dishwashing_liquid_09s.jpg	8	-1	0	0	dishwashing_liquid_09s.jpg	0	0.0	0	49.1911208104575	49.241098770056894	0.0499779595993459	16804
16.904	50	20	0	0	bra	185	20	0	stimuli\bra\bra_05s.jpg	4	-1	0	0	bra_05s.jpg	0	0.0	0	49.2911232972983	49.341102232108796	0.0499789348104969	16904
17.004	50	21	0	0	pea	1128	21	0	stimuli\pea\pea_04s.jpg	3	-1	0	0	pea_04s.jpg	0	0.0	0	49.391123102279394	49.4411015495425	0.0499784472631291	17004
17.104	50	22	0	0	key	869	22	0	stimuli\key\key_02s.jpg	1	-1	0	0	key_02s.jpg	0	0.0	0	49.491128514753704	49.541104036383295	0.0499755216296762	17104
17.204	50	23	0	0	berry	121	23	0	stimuli\berry\berry_09s.jpg	8	-1	0	0	berry_09s.jpg	0	0.0	0	49.591127832070896	49.641105304122895	0.0499774720519781	17204
17.304	50	24	0	0	towel_rack	1693	24	0	stimuli\towel_rack\towel_rack_06s.jpg	5	-1	0	0	towel_rack_06s.jpg	0	0.0	0	49.691127637052	49.74111242336221	0.0499847863102332	17304
17.404	50	25	0	0	petal	1158	25	0	stimuli\petal\petal_02s.jpg	1	-1	0	0	petal_02s.jpg	0	0.0	0	49.7911310992204	49.841111009242	0.0499799100216478	17404
17.504	50	26	0	0	candle	253	26	0	stimuli\candle\candle_12n.jpg	11	-1	0	0	candle_12n.jpg	0	0.0	0	49.8911335860612	49.9411205665674	0.049986980506219	17504
17.604	50	27	0	0	cucumber	457	27	0	stimuli\cucumber\cucumber_04s.jpg	3	-1	0	1	cucumber_04s.jpg	0	0.0	0	49.991141436621504	50.0411201277748	0.0499786911532283	17604
17.704	50	28	0	0	razor_blade	1291	28	0	stimuli\razor_blade\razor_blade_06s.jpg	5	-1	0	0	razor_blade_06s.jpg	0	0.0	0	50.0911378283054	50.1411204203032	0.0499825919978321	17704
17.804	50	29	0	0	raspberry	1284	29	0	stimuli\raspberry\raspberry_02n.jpg	1	-1	0	0	raspberry_02n.jpg	0	0.0	0	50.19114372844339	50.2411246137926	0.0499808853492141	17804
17.904	50	30	0	0	xylophone	1843	30	0	stimuli\xylophone\xylophone_11s.jpg	10	-1	0	0	xylophone_11s.jpg	0	0.0	0	50.291142801987	50.341134171118	0.0499913691310212	17904
18.004	50	31	0	0	binder	126	31	0	stimuli\binder\binder_09s.jpg	8	-1	0	0	binder_09s.jpg	0	0.0	0	50.3911599174608	50.441131538013	0.0499716205522418	18004
18.104	50	32	0	0	pine_tree	1181	32	0	stimuli\pine_tree\pine_tree_12s.jpg	11	-1	0	0	pine_tree_12s.jpg	0	0.0	0	50.49115387094211	50.5411330496427	0.0499791787005961	18104
18.204	50	33	0	0	playing_card	1199	33	0	stimuli\playing_card\playing_card_01b.jpg	0	-1	0	0	playing_card_01b.jpg	0	0.0	0	50.5911495311884	50.641111399396294	0.0499618682079017	18204
18.304	50	34	0	0	hummus	812	34	0	stimuli\hummus\hummus_07s.jpg	6	-1	0	0	hummus_07s.jpg	0	0.0	0	50.691157625638894	50.7411426557228	0.0499850300839171	18304
18.404	50	35	0	0	beaker	101	35	0	stimuli\beaker\beaker_04s.jpg	3	-1	0	0	beaker_04s.jpg	0	0.0	0	50.7911662076367	50.8411483120872	0.0499821044504642	18404
18.504	50	36	0	0	crutch	452	36	0	stimuli\crutch\crutch_12s.jpg	11	-1	0	0	crutch_12s.jpg	0	0.0	0	50.891162111656705	50.941148848505705	0.0499867368489504	18504
18.604	50	37	0	0	baton4	95	37	0	stimuli\baton4\baton4_09s.jpg	8	-1	0	0	baton4_09s.jpg	0	0.0	0	50.9911704499973	51.04114792204929	0.0499774720519781	18604
18.704	50	38	0	0	pelican	1140	38	0	stimuli\pelican\pelican_05s.jpg	4	-1	0	0	pelican_05s.jpg	0	0.0	0	51.091170742525705	51.141127003124	0.0499562605982646	18704
18.804	50	39	0	0	vent	1758	39	0	stimuli\vent\vent_08s.jpg	7	-1	0	0	vent_08s.jpg	0	0.0	0	51.1911729855929	51.241151676629705	0.049978691036812996	18804
18.904	50	40	0	0	cardboard	272	40	0	stimuli\cardboard\cardboard_01b.jpg	0	-1	0	0	cardboard_01b.jpg	0	0.0	0	51.29117815429339	51.3411531882593	0.0499750339658931	18904
19.004	50	41	0	0	fire_pit	593	41	0	stimuli\fire_pit\fire_pit_02s.jpg	1	-1	0	0	fire_pit_02s.jpg	0	0.0	0	51.3911808850244	51.4411573817488	0.0499764967244118	19004
19.104	50	42	0	0	jump_rope	858	42	0	stimuli\jump_rope\jump_rope_01b.jpg	0	-1	0	0	jump_rope_01b.jpg	0	0.0	0	51.491180933779106	51.541161087690895	0.049980153911747004	19104
19.204	50	43	0	0	centerpiece	295	43	0	stimuli\centerpiece\centerpiece_08s.jpg	7	-1	0	0	centerpiece_08s.jpg	0	0.0	0	51.591183664393604	51.641166744055205	0.0499830796616152	19204
19.304	50	44	0	0	panties	1107	44	0	stimuli\panties\panties_09s.jpg	8	-1	0	0	panties_09s.jpg	0	0.0	0	51.6911868826719	51.7411655738251	0.0499786911532283	19304
19.404	50	45	0	0	calf1	241	45	0	stimuli\calf1\calf1_11s.jpg	10	-1	0	0	calf1_11s.jpg	0	0.0	0	51.791188150527894	51.841170011088295	0.049981860560364993	19404
19.504	50	46	0	0	piecrust	1169	46	0	stimuli\piecrust\piecrust_09s.jpg	8	-1	0	0	piecrust_09s.jpg	0	0.0	0	51.891191612579895	51.9411695722956	0.0499779597157612	19504
19.604	50	47	0	0	footbath	631	47	0	stimuli\footbath\footbath_11s.jpg	10	-1	0	0	footbath_11s.jpg	0	0.0	0	51.991197756608	52.04117400955871	0.0499762529507279	19604
19.704	50	48	0	0	penlight	1147	48	0	stimuli\penlight\penlight_07s.jpg	6	-1	0	0	penlight_07s.jpg	0	0.0	0	52.0911980491364	52.141177471727104	0.0499794225906953	19704
19.804	50	49	0	0	toilet_paper	1671	49	0	stimuli\toilet_paper\toilet_paper_11s.jpg	10	-1	0	0	toilet_paper_11s.jpg	0	0.0	0	52.19120687502439	52.2411772765918	0.04997040156740701	19804
19.904	50	50	0	0	seahorse	1396	50	0	stimuli\seahorse\seahorse_10s.jpg	9	-1	0	0	seahorse_10s.jpg	0	0.0	0	52.2912047295831	52.3411797634326	0.0499750338494778	19904
20.004	50	51	0	0	coat_rack	370	51	0	stimuli\coat_rack\coat_rack_11s.jpg	10	-1	0	0	coat_rack_11s.jpg	0	0.0	0	52.391203315462896	52.441189320758	0.049986005295068	20004
20.104	50	52	0	0	buffet	211	52	0	stimuli\buffet\buffet_03s.jpg	2	-1	0	0	buffet_03s.jpg	0	0.0	0	52.4912062899675	52.54118498100429	0.049978691036812996	20104
20.204	50	53	0	0	pitchfork	1191	53	0	stimuli\pitchfork\pitchfork_07s.jpg	6	-1	0	0	pitchfork_07s.jpg	0	0.0	0	52.5912119463319	52.6411886869464	0.0499767406145111	20204
20.304	50	54	0	0	wheelbarrow	1807	54	0	stimuli\wheelbarrow\wheelbarrow_06s.jpg	5	-1	0	0	wheelbarrow_06s.jpg	0	0.0	0	52.69121370173529	52.741189954686	0.0499762529507279	20304
20.404	50	55	0	0	ribbon	1308	55	0	stimuli\ribbon\ribbon_12s.jpg	11	-1	0	0	ribbon_12s.jpg	0	0.0	0	52.7912118000677	52.841194148175404	0.0499823481077328	20404
20.504	50	56	0	0	coil	384	56	0	stimuli\coil\coil_02s.jpg	1	-1	0	0	coil_02s.jpg	0	0.0	0	52.8912169687683	52.941201755078495	0.0499847863102332	20504
20.604	50	57	0	0	headband	762	57	0	stimuli\headband\headband_02s.jpg	1	-1	0	0	headband_02s.jpg	0	0.0	0	52.99122067471029	53.0412018038332	0.04998112912289799	20604
20.704	50	58	0	0	brick	199	58	0	stimuli\brick\brick_04s.jpg	3	-1	0	0	brick_04s.jpg	0	0.0	0	53.0912231615512	53.1412020963617	0.0499789348104969	20704
20.804	50	59	0	0	parrot	1121	59	0	stimuli\parrot\parrot_01b.jpg	0	-1	0	0	parrot_01b.jpg	0	0.0	0	53.1912222350948	53.241203607991295	0.0499813728965819	20804
20.904	50	60	0	0	skull	1458	60	0	stimuli\skull\skull_01b.jpg	0	-1	0	0	skull_01b.jpg	0	0.0	0	53.2912239904981	53.341209020582	0.0499850300839171	20904
21.004	50	61	0	0	bird	128	61	0	stimuli\bird\bird_06s.jpg	5	-1	0	0	bird_06s.jpg	0	0.0	0	53.391227696323796	53.4412117511965	0.0499840548727661	21004
21.104	50	62	0	0	periscope	1155	62	0	stimuli\periscope\periscope_07s.jpg	6	-1	0	0	periscope_07s.jpg	0	0.0	0	53.491231158492205	53.5412118000677	0.0499806415755302	21104
21.204	50	63	0	0	bib	122	63	0	stimuli\bib\bib_05s.jpg	4	-1	0	0	bib_05s.jpg	0	0.0	0	53.591233889106704	53.6412142869085	0.0499803978018463	21204
21.304	50	64	0	0	racehorse	1267	64	0	stimuli\racehorse\racehorse_06s.jpg	5	-1	0	0	racehorse_06s.jpg	0	0.0	0	53.6912407645723	53.7412162860855	0.0499755215132609	21304
21.404	50	65	0	0	cotton_candy	421	65	0	stimuli\cotton_candy\cotton_candy_08s.jpg	7	-1	0	0	cotton_candy_08s.jpg	0	0.0	0	53.79123715613971	53.841216578613995	0.04997942247428	21404
21.504	50	66	0	0	mongoose	1016	66	0	stimuli\mongoose\mongoose_06s.jpg	5	-1	0	0	mongoose_06s.jpg	0	0.0	0	53.8912396429805	53.94120906933679	0.049969426356256	21504
21.604	50	67	0	0	sea_urchin	1393	67	0	stimuli\sea_urchin\sea_urchin_12s.jpg	11	-1	0	0	sea_urchin_12s.jpg	0	0.0	0	53.991246518446104	54.041229841881396	0.0499833234352991	21604
21.704	50	68	0	0	outlet	1088	68	0	stimuli\outlet\outlet_02s.jpg	1	-1	0	0	outlet_02s.jpg	0	0.0	0	54.0912355957553	54.141236229683294	0.0500006339279935	21704
21.804	50	69	0	0	kitten	875	69	0	stimuli\kitten\kitten_02s.jpg	1	-1	0	0	kitten_02s.jpg	0	0.0	0	54.1912546616513	54.2412331089145	0.0499784472631291	21804
21.904	50	70	0	0	swan	1591	70	0	stimuli\swan\swan_12s.jpg	11	-1	0	0	swan_12s.jpg	0	0.0	0	54.2912571484922	54.3412355957553	0.0499784472631291	21904
22.004	50	71	0	0	frisbee	643	71	0	stimuli\frisbee\frisbee_07s.jpg	6	-1	0	0	frisbee_07s.jpg	0	0.0	0	54.39125963533301	54.4412361321738	0.0499764968408272	22004
22.104	50	72	0	0	machete	953	72	0	stimuli\machete\machete_09s.jpg	8	-1	0	0	machete_09s.jpg	0	0.0	0	54.49125895276671	54.5412222838495	0.0499633310828358	22104
22.204	50	73	0	0	windshield	1820	73	0	stimuli\windshield\windshield_09s.jpg	8	-1	0	0	windshield_09s.jpg	0	0.0	0	54.591260708170005	54.6412489077775	0.0499881996074691	22204
22.304	50	74	0	0	lighter	928	74	0	stimuli\lighter\lighter_07s.jpg	6	-1	0	0	lighter_07s.jpg	0	0.0	0	54.691269046394204	54.741229207953396	0.0499601615592837	22304
22.404	50	75	0	0	hamburger	740	75	0	stimuli\hamburger\hamburger_03s.jpg	2	-1	0	0	hamburger_03s.jpg	0	0.0	0	54.7912661695154	54.841252906247995	0.0499867367325351	22404
22.504	50	76	0	0	flatiron	613	76	0	stimuli\flatiron\flatiron_04s.jpg	3	-1	0	0	flatiron_04s.jpg	0	0.0	0	54.8912701191148	54.941252711229	0.0499825921142474	22504
22.604	50	77	0	0	doorhandle	508	77	0	stimuli\doorhandle\doorhandle_08s.jpg	7	-1	0	0	doorhandle_08s.jpg	0	0.0	0	54.9912757755956	55.0412539789686	0.0499782033730298	22604
22.704	50	78	0	0	tarantula	1626	78	0	stimuli\tarantula\tarantula_04s.jpg	3	-1	0	0	tarantula_04s.jpg	0	0.0	0	55.0912758243503	55.1412569534732	0.04998112912289799	22704
22.804	50	79	0	0	coaster	368	79	0	stimuli\coaster\coaster_10s.jpg	9	-1	0	0	coaster_10s.jpg	0	0.0	0	55.1912797740661	55.241256027016796	0.0499762529507279	22804
22.904	50	80	0	0	shoulder	1431	80	0	stimuli\shoulder\shoulder_06s.jpg	5	-1	0	0	shoulder_06s.jpg	0	0.0	0	55.29128177324311	55.34126070817	0.0499789349269122	22904
23.004	50	81	0	0	swimsuit	1597	81	0	stimuli\swimsuit\swimsuit_01b.jpg	0	-1	0	0	swimsuit_01b.jpg	0	0.0	0	55.3912830410991	55.441266608308105	0.049983567208983004	23004
23.104	50	82	0	0	doll	499	82	0	stimuli\doll\doll_01b.jpg	0	-1	0	0	doll_01b.jpg	0	0.0	0	55.491269924095796	55.541264706640504	0.0499947825446725	23104
23.204	50	83	0	0	bookshelf	167	83	0	stimuli\bookshelf\bookshelf_10s.jpg	9	-1	0	0	bookshelf_10s.jpg	0	0.0	0	55.5912892337656	55.6412747515133	0.0499855177477002	23204
23.304	50	84	0	0	pillow	1176	84	0	stimuli\pillow\pillow_03s.jpg	2	-1	0	0	pillow_03s.jpg	0	0.0	0	55.6912909892853	55.741269680322105	0.049978691036812996	23304
23.404	50	85	0	0	flip_flop	614	85	0	stimuli\flip_flop\flip_flop_05s.jpg	4	-1	0	0	flip_flop_05s.jpg	0	0.0	0	55.7912771408446	55.841255100560396	0.0499779597157612	23404
23.504	50	86	0	0	olive	1075	86	0	stimuli\olive\olive_11s.jpg	10	-1	0	0	olive_11s.jpg	0	0.0	0	55.891297669615604	55.941275385441294	0.049977715825661996	23504
23.604	50	87	0	0	mold2	1013	87	0	stimuli\mold2\mold2_04s.jpg	3	-1	0	0	mold2_04s.jpg	0	0.0	0	55.99129844980779	56.0412839675555	0.0499855177477002	23604
23.704	50	88	0	0	grapefruit	703	88	0	stimuli\grapefruit\grapefruit_12s.jpg	11	-1	0	0	grapefruit_12s.jpg	0	0.0	0	56.091299717663794	56.1412830410991	0.0499833234352991	23704
23.804	50	89	0	0	solar_panel	1493	89	0	stimuli\solar_panel\solar_panel_08s.jpg	7	-1	0	0	solar_panel_08s.jpg	0	0.0	0	56.1913014730671	56.2412669984624	0.0499655253952369	23804
23.904	50	90	0	0	letter_opener	919	90	0	stimuli\letter_opener\letter_opener_04s.jpg	3	-1	0	0	letter_opener_04s.jpg	0	0.0	0	56.2913044474553	56.341283870046	0.0499794225906953	23904
24.004	50	91	0	0	fingerprint	589	91	0	stimuli\fingerprint\fingerprint_05s.jpg	4	-1	0	0	fingerprint_05s.jpg	0	0.0	0	56.391309616272295	56.44128855119921	0.0499789349269122	24004
24.104	50	92	0	0	puddle	1247	92	0	stimuli\puddle\puddle_05s.jpg	4	-1	0	0	puddle_05s.jpg	0	0.0	0	56.4912925984245	56.5412895751651	0.0499969767406583	24104
24.204	50	93	0	0	blueberry	149	93	0	stimuli\blueberry\blueberry_01b.jpg	0	-1	0	0	blueberry_01b.jpg	0	0.0	0	56.591311908094205	56.6412947438657	0.049982835771516	24204
24.304	50	94	0	0	wheelchair	1808	94	0	stimuli\wheelchair\wheelchair_06s.jpg	5	-1	0	0	wheelchair_06s.jpg	0	0.0	0	56.6913168330211	56.741294792620494	0.0499779595993459	24304
24.404	50	95	0	0	nail_file	1048	95	0	stimuli\nail_file\nail_file_03s.jpg	2	-1	0	0	nail_file_03s.jpg	0	0.0	0	56.791340775089296	56.8412977671251	0.0499569920357317	24404
24.504	50	96	0	0	worm	1836	96	0	stimuli\worm\worm_07n.jpg	6	-1	0	0	worm_07n.jpg	0	0.0	0	56.891318637179204	56.941298059653505	0.04997942247428	24504
24.604	50	97	0	0	chive	337	97	0	stimuli\chive\chive_10s.jpg	9	-1	0	0	chive_10s.jpg	0	0.0	0	56.991313078324296	57.0412929884624	0.0499799101380631	24604
24.704	50	98	0	0	stethoscope	1550	98	0	stimuli\stethoscope\stethoscope_12s.jpg	11	-1	0	0	stethoscope_12s.jpg	0	0.0	0	57.0913167842664	57.1413003514754	0.049983567208983004	24704
24.804	50	99	0	0	granite	700	99	0	stimuli\granite\granite_03s.jpg	2	-1	0	0	granite_03s.jpg	0	0.0	0	57.1913214654196	57.241299181245296	0.049977715825661996	24804
24.904	50	100	0	0	checkers	311	100	0	stimuli\checkers\checkers_12s.jpg	11	-1	0	0	checkers_12s.jpg	0	0.0	0	57.2913239522604	57.3413111766567	0.0499872243963182	24904
25.004	50	101	0	0	milk	1001	101	0	stimuli\milk\milk_03s.jpg	2	-1	0	0	milk_03s.jpg	0	0.0	0	57.391333021921994	57.441308787325404	0.0499757654033601	25004
25.104	50	102	0	0	kayak	863	102	0	stimuli\kayak\kayak_11s.jpg	10	-1	0	1	kayak_11s.jpg	0	0.0	0	57.4913320954656	57.5413161503384	0.0499840548727661	25104
25.204	50	103	0	0	baseball_glove	80	103	0	stimuli\baseball_glove\baseball_glove_06s.jpg	5	-1	0	0	baseball_glove_06s.jpg	0	0.0	0	57.5913326318841	57.64131693053061	0.049984298646449994	25204
25.304	50	104	0	0	saxophone	1368	104	0	stimuli\saxophone\saxophone_02s.jpg	1	-1	0	0	saxophone_02s.jpg	0	0.0	0	57.691342432983205	57.7413160040742	0.049973571090959006	25304
25.404	50	105	0	0	bologna	158	105	0	stimuli\bologna\bologna_09s.jpg	8	-1	0	0	bologna_09s.jpg	0	0.0	0	57.791341018863	57.8413180032512	0.049976984388195	25404
25.504	50	106	0	0	straightjacket	1565	106	0	stimuli\straightjacket\straightjacket_03s.jpg	2	-1	0	0	straightjacket_03s.jpg	0	0.0	0	57.89134253049271	57.941319514880895	0.049976984388195	25504
25.604	50	107	0	0	pencil	1142	107	0	stimuli\pencil\pencil_12n.jpg	11	-1	0	0	pencil_12n.jpg	0	0.0	0	57.991338190739	58.0413198075257	0.0499816167866811	25604
25.704	50	108	0	0	piglet	1173	108	0	stimuli\piglet\piglet_02s.jpg	1	-1	0	0	piglet_02s.jpg	0	0.0	0	58.091341165127204	58.1413235133514	0.0499823482241482	25704
25.804	50	109	0	0	tag	1616	109	0	stimuli\tag\tag_06s.jpg	5	-1	0	0	tag_06s.jpg	0	0.0	0	58.19134682149161	58.24132307455871	0.0499762530671433	25804
25.904	50	110	0	0	tongue	1675	110	0	stimuli\tongue\tongue_06s.jpg	5	-1	0	0	tongue_06s.jpg	0	0.0	0	58.291344919824	58.3413260489469	0.04998112912289799	25904
26.004	50	111	0	0	french_horn	642	111	0	stimuli\french_horn\french_horn_10s.jpg	9	-1	0	0	french_horn_10s.jpg	0	0.0	0	58.391353745712	58.44132951111529	0.0499757654033601	26004
26.104	50	112	0	0	gourd	696	112	0	stimuli\gourd\gourd_08s.jpg	7	-1	0	0	gourd_08s.jpg	0	0.0	0	58.491349162068204	58.5413317541825	0.0499825921142474	26104
26.204	50	113	0	0	shoe	1423	113	0	stimuli\shoe\shoe_09s.jpg	8	-1	0	0	shoe_09s.jpg	0	0.0	0	58.591352868010304	58.641334241023294	0.0499813730129972	26204
26.304	50	114	0	0	grits	717	114	0	stimuli\grits\grits_08s.jpg	7	-1	0	0	grits_08s.jpg	0	0.0	0	58.69136071868711	58.7413350212155	0.0499743025284261	26304
26.404	50	115	0	0	polygraph	1217	115	0	stimuli\polygraph\polygraph_10s.jpg	9	-1	0	0	polygraph_10s.jpg	0	0.0	0	58.791360767441795	58.84133970236871	0.0499789349269122	26404
26.504	50	116	0	0	monkey	1017	116	0	stimuli\monkey\monkey_02s.jpg	1	-1	0	0	monkey_02s.jpg	0	0.0	0	58.891359597095295	58.941344139631795	0.0499845425365493	26504
26.604	50	117	0	0	pipe2	1187	117	0	stimuli\pipe2\pipe2_11s.jpg	10	-1	0	0	pipe2_11s.jpg	0	0.0	0	58.991365009686	59.04134467605039	0.0499796663643792	26604
26.704	50	118	0	0	teabag	1632	118	0	stimuli\teabag\teabag_10s.jpg	9	-1	0	0	teabag_10s.jpg	0	0.0	0	59.091370178503	59.1413474066649	0.0499772281618789	26704
26.804	50	119	0	0	lip_balm	934	119	0	stimuli\lip_balm\lip_balm_06s.jpg	5	-1	0	0	lip_balm_06s.jpg	0	0.0	0	59.19137315289121	59.241346723982105	0.049973571090959006	26804
26.904	50	120	0	0	blind	140	120	0	stimuli\blind\blind_06s.jpg	5	-1	0	0	blind_06s.jpg	0	0.0	0	59.2913763711695	59.3413538432214	0.0499774720519781	26904
27.004	50	121	0	0	truck	1720	121	0	stimuli\truck\truck_11s.jpg	10	-1	0	0	truck_11s.jpg	0	0.0	0	59.391375688603105	59.441357549163506	0.049981860560364993	27004
27.104	50	122	0	0	brake	191	122	0	stimuli\brake\brake_10s.jpg	9	-1	0	0	brake_10s.jpg	0	0.0	0	59.491368910647004	59.541357110254495	0.0499881996074691	27104
27.204	50	123	0	0	elbow	552	123	0	stimuli\elbow\elbow_09s.jpg	8	-1	0	0	elbow_09s.jpg	0	0.0	0	59.5913779803086	59.6413578904467	0.0499799101380631	27204
27.304	50	124	0	0	map	970	124	0	stimuli\map\map_02s.jpg	1	-1	0	0	map_02s.jpg	0	0.0	0	59.69138412433679	59.741363303037396	0.0499791787005961	27304
27.404	50	125	0	0	shopping_basket	1427	125	0	stimuli\shopping_basket\shopping_basket_05s.jpg	4	-1	0	0	shopping_basket_05s.jpg	0	0.0	0	59.7913831978804	59.8413672527531	0.0499840548727661	27404
27.504	50	126	0	0	satellite	1360	126	0	stimuli\satellite\satellite_09s.jpg	8	-1	0	0	satellite_09s.jpg	0	0.0	0	59.8913903171197	59.9413719339063	0.0499816167866811	27504
27.604	50	127	0	0	biscuit	133	127	0	stimuli\biscuit\biscuit_11s.jpg	10	-1	0	0	biscuit_11s.jpg	0	0.0	0	59.9913910973119	60.0413690569112	0.0499779595993459	27604
27.704	50	128	0	0	bikini	124	128	0	stimuli\bikini\bikini_05s.jpg	4	-1	0	0	bikini_05s.jpg	0	0.0	0	60.0913960222388	60.1413747132756	0.049978691036812996	27704
27.804	50	129	0	0	sorbet	1497	129	0	stimuli\sorbet\sorbet_08s.jpg	7	-1	0	0	sorbet_08s.jpg	0	0.0	0	60.1913958272198	60.241372567834304	0.0499767406145111	27804
27.904	50	130	0	0	showerhead	1436	130	0	stimuli\showerhead\showerhead_09s.jpg	8	-1	0	0	showerhead_09s.jpg	0	0.0	0	60.2913949007634	60.341376761323794	0.049981860560364993	27904
28.004	50	131	0	0	fork	634	131	0	stimuli\fork\fork_02s.jpg	1	-1	0	0	fork_02s.jpg	0	0.0	0	60.3914005571278	60.4413826614618	0.0499821043340489	28004
28.104	50	132	0	0	roller_coaster	1325	132	0	stimuli\roller_coaster\roller_coaster_03s.jpg	2	-1	0	0	roller_coaster_03s.jpg	0	0.0	0	60.49139987444511	60.54138075979429	0.0499808853492141	28104
28.204	50	133	0	0	pinecone	1183	133	0	stimuli\pinecone\pinecone_12s.jpg	11	-1	0	0	pinecone_12s.jpg	0	0.0	0	60.59140845655929	60.6413951932918	0.0499867367325351	28204
28.304	50	134	0	0	seagull	1395	134	0	stimuli\seagull\seagull_12s.jpg	11	-1	0	0	seagull_12s.jpg	0	0.0	0	60.69141094340009	60.741380369640005	0.0499694262398407	28304
28.404	50	135	0	0	torch	1683	135	0	stimuli\torch\torch_08s.jpg	7	-1	0	0	torch_08s.jpg	0	0.0	0	60.7914200130617	60.84139894798861	0.0499789349269122	28404
28.504	50	136	0	0	leggings	912	136	0	stimuli\leggings\leggings_02s.jpg	1	-1	0	0	leggings_02s.jpg	0	0.0	0	60.8914278637385	60.94140484812671	0.049976984388195	28504
28.604	50	137	0	0	figurine	582	137	0	stimuli\figurine\figurine_08s.jpg	7	-1	0	0	figurine_08s.jpg	0	0.0	0	60.9914227925474	61.041404896881396	0.0499821043340489	28604
28.704	50	138	0	0	slingshot	1467	138	0	stimuli\slingshot\slingshot_01b.jpg	0	-1	0	0	slingshot_01b.jpg	0	0.0	0	61.0914074812317	61.1414103094721	0.0500028282403946	28704
28.804	50	139	0	0	honeypot	790	139	0	stimuli\honeypot\honeypot_01b.jpg	0	-1	0	0	honeypot_01b.jpg	0	0.0	0	61.191432642401196	61.2414103582269	0.049977715825661996	28804
28.904	50	140	0	0	scaffold	1369	140	0	stimuli\scaffold\scaffold_12s.jpg	11	-1	0	1	scaffold_12s.jpg	0	0.0	0	61.291415136889604	61.341402605059606	0.0499874681700021	28904
29.004	50	141	0	0	gravestone	710	141	0	stimuli\gravestone\gravestone_09s.jpg	8	-1	0	0	gravestone_09s.jpg	0	0.0	0	61.3914378598565	61.4414163071197	0.0499784472631291	29004
29.104	50	142	0	0	baby	46	142	0	stimuli\baby\baby_09s.jpg	8	-1	0	0	baby_09s.jpg	0	0.0	0	61.491438640048706	61.541390755912296	0.0499521158635616	29104
29.204	50	143	0	0	lollipop	945	143	0	stimuli\lollipop\lollipop_08s.jpg	7	-1	0	0	lollipop_08s.jpg	0	0.0	0	61.59141772123979	61.64142445044129	0.0500067292014137	29204
29.304	50	144	0	0	gun	727	144	0	stimuli\gun\gun_12s.jpg	11	-1	0	0	gun_12s.jpg	0	0.0	0	61.69144580804279	61.74142254865729	0.0499767406145111	29304
29.404	50	145	0	0	cigarette	344	145	0	stimuli\cigarette\cigarette_11s.jpg	10	-1	0	0	cigarette_11s.jpg	0	0.0	0	61.7914436626015	61.84142235363829	0.049978691036812996	29404
29.504	50	146	0	0	pulpit	1251	146	0	stimuli\pulpit\pulpit_12s.jpg	11	-1	0	0	pulpit_12s.jpg	0	0.0	0	61.8914537074743	61.941427766229	0.0499740587547421	29504
29.604	50	147	0	0	calamari	239	147	0	stimuli\calamari\calamari_06s.jpg	5	-1	0	0	calamari_06s.jpg	0	0.0	0	61.991437908611296	62.0414470758988	0.0500091672874987	29604
29.704	50	148	0	0	modem	1011	148	0	stimuli\modem\modem_07s.jpg	6	-1	0	0	modem_07s.jpg	0	0.0	0	62.091461363132105	62.141432496137	0.049971133004874	29704
29.804	50	149	0	0	bench	120	149	0	stimuli\bench\bench_06s.jpg	5	-1	0	0	bench_06s.jpg	0	0.0	0	62.1914558042772	62.2414352267515	0.04997942247428	29804
29.904	50	150	0	0	crow	446	150	0	stimuli\crow\crow_09s.jpg	8	-1	0	0	crow_09s.jpg	0	0.0	0	62.2914419558365	62.341448685037896	0.0500067292014137	29904
30.004	50	151	0	0	string_cheese	1573	151	0	stimuli\string_cheese\string_cheese_12s.jpg	11	-1	0	0	string_cheese_12s.jpg	0	0.0	0	62.3914583398728	62.4414384937845	0.049980153911747004	30004
30.104	50	152	0	0	finger	588	152	0	stimuli\finger\finger_04s.jpg	3	-1	0	0	finger_04s.jpg	0	0.0	0	62.49146180192471	62.541440493078	0.0499786911532283	30104
30.204	50	153	0	0	canvas	264	153	0	stimuli\canvas\canvas_08s.jpg	7	-1	0	0	canvas_08s.jpg	0	0.0	0	62.591443321202	62.6414441989036	0.0500008777016774	30204
30.304	50	154	0	0	speedometer	1512	154	0	stimuli\speedometer\speedometer_04s.jpg	3	-1	0	0	speedometer_04s.jpg	0	0.0	0	62.6914655566216	62.741445222985895	0.0499796663643792	30304
30.404	50	155	0	0	doorbell	507	155	0	stimuli\doorbell\doorbell_10s.jpg	9	-1	0	0	doorbell_10s.jpg	0	0.0	0	62.791469994001105	62.8414377135923	0.0499677195912227	30404
30.504	50	156	0	0	hydrant	814	156	0	stimuli\hydrant\hydrant_08s.jpg	7	-1	0	0	hydrant_08s.jpg	0	0.0	0	62.89147248084189	62.9414384937845	0.0499660129426047	30504
30.604	50	157	0	0	hose	800	157	0	stimuli\hose\hose_02s.jpg	1	-1	0	0	hose_02s.jpg	0	0.0	0	62.9914866704494	63.041453658719504	0.049966988270170994	30604
30.704	50	158	0	0	water_bottle	1787	158	0	stimuli\water_bottle\water_bottle_06s.jpg	5	-1	0	0	water_bottle_06s.jpg	0	0.0	0	63.091493545915	63.1414485875284	0.0499550416134298	30704
30.804	50	159	0	0	book	165	159	0	stimuli\book\book_12s.jpg	11	-1	0	0	book_12s.jpg	0	0.0	0	63.1914833546616	63.2414647276746	0.0499813730129972	30804
30.904	50	160	0	0	christmas_card	340	160	0	stimuli\christmas_card\christmas_card_08s.jpg	7	-1	0	0	christmas_card_08s.jpg	0	0.0	0	63.2914865729399	63.3414503916865	0.0499638187466189	30904
31.004	50	161	0	0	viewfinder	1763	161	0	stimuli\viewfinder\viewfinder_12s.jpg	11	-1	0	0	viewfinder_12s.jpg	0	0.0	0	63.3914907665458	63.4414697013563	0.0499789348104969	31004
31.104	50	162	0	0	icepick	822	162	0	stimuli\icepick\icepick_10s.jpg	9	-1	0	0	icepick_10s.jpg	0	0.0	0	63.491476918105	63.5414631672902	0.0499862491851673	31104
31.204	50	163	0	0	patch	1125	163	0	stimuli\patch\patch_09s.jpg	8	-1	0	0	patch_09s.jpg	0	0.0	0	63.591495252563604	63.6414754064754	0.049980153911747004	31204
31.304	50	164	0	0	face	569	164	0	stimuli\face\face_06s.jpg	5	-1	0	0	face_06s.jpg	0	0.0	0	63.691496764193296	63.7414759428939	0.0499791787005961	31304
31.404	50	165	0	0	cash_register	280	165	0	stimuli\cash_register\cash_register_12s.jpg	11	-1	0	0	cash_register_12s.jpg	0	0.0	0	63.79149803204929	63.841470871702796	0.049972839653492	31404
31.504	50	166	0	0	toolbox	1677	166	0	stimuli\toolbox\toolbox_03s.jpg	2	-1	0	0	toolbox_03s.jpg	0	0.0	0	63.891501981765	63.941480185138104	0.0499782033730298	31504
31.604	50	167	0	0	knitting_needle	881	167	0	stimuli\knitting_needle\knitting_needle_01b.jpg	0	-1	0	0	knitting_needle_01b.jpg	0	0.0	0	63.9915042247158	64.0414885234786	0.0499842987628654	31604
31.704	50	168	0	0	patty	1126	168	0	stimuli\patty\patty_08s.jpg	7	-1	0	0	patty_08s.jpg	0	0.0	0	64.0915079306578	64.1414907665458	0.0499828358879313	31704
31.804	50	169	0	0	face_mask	570	169	0	stimuli\face_mask\face_mask_02s.jpg	1	-1	0	0	face_mask_02s.jpg	0	0.0	0	64.1914906689199	64.2414557067677	0.0499650378478691	31804
31.904	50	170	0	0	sim_card	1446	170	0	stimuli\sim_card\sim_card_09s.jpg	8	-1	0	0	sim_card_09s.jpg	0	0.0	0	64.2914795024553	64.34146185067951	0.0499823482241482	31904
32.004	50	171	0	0	jewelry	850	171	0	stimuli\jewelry\jewelry_09s.jpg	8	-1	0	0	jewelry_09s.jpg	0	0.0	0	64.3915112464456	64.4414877432864	0.0499764968408272	32004
32.104	50	172	0	0	hairbrush	734	172	0	stimuli\hairbrush\hairbrush_03s.jpg	2	-1	0	0	hairbrush_03s.jpg	0	0.0	0	64.4915176342474	64.5414938871982	0.0499762529507279	32104
32.204	50	173	0	0	seaplane	1398	173	0	stimuli\seaplane\seaplane_03s.jpg	2	-1	0	0	seaplane_03s.jpg	0	0.0	0	64.5915174392285	64.6414971054764	0.0499796662479639	32204
32.304	50	174	0	0	hinge	779	174	0	stimuli\hinge\hinge_08s.jpg	7	-1	0	0	hinge_08s.jpg	0	0.0	0	64.6915182194207	64.7414969104575	0.049978691036812996	32304
32.404	50	175	0	0	dandelion	472	175	0	stimuli\dandelion\dandelion_03s.jpg	2	-1	0	0	dandelion_03s.jpg	0	0.0	0	64.791519974824	64.8415047611343	0.0499847863102332	32404
32.504	50	176	0	0	chariot	309	176	0	stimuli\chariot\chariot_12s.jpg	11	-1	0	0	chariot_12s.jpg	0	0.0	0	64.8915239245398	64.9414835985517	0.0499596740119159	32504
32.604	50	177	0	0	boot	169	177	0	stimuli\boot\boot_07s.jpg	6	-1	0	0	boot_07s.jpg	0	0.0	0	64.9915190971224	65.04149705672171	0.0499779595993459	32604
32.704	50	178	0	0	closet	360	178	0	stimuli\closet\closet_01b.jpg	0	-1	0	0	closet_01b.jpg	0	0.0	0	65.091522071627	65.14150100643751	0.0499789348104969	32704
32.804	50	179	0	0	tortilla	1687	179	0	stimuli\tortilla\tortilla_11s.jpg	10	-1	0	0	tortilla_11s.jpg	0	0.0	0	65.19152138894421	65.2415000799811	0.049978691036812996	32804
32.904	50	180	0	0	dashboard	475	180	0	stimuli\dashboard\dashboard_02s.jpg	1	-1	0	0	dashboard_02s.jpg	0	0.0	0	65.2915333843557	65.3415145134786	0.04998112912289799	32904
33.004	50	181	0	0	salad	1348	181	0	stimuli\salad\salad_02s.jpg	1	-1	0	0	salad_02s.jpg	0	0.0	0	65.3915431854548	65.441517975647	0.0499747901922092	33004
33.104	50	182	0	0	defibrillator	477	182	0	stimuli\defibrillator\defibrillator_06s.jpg	5	-1	0	0	defibrillator_06s.jpg	0	0.0	0	65.4915378703736	65.54151899961289	0.0499811292393133	33104
33.204	50	183	0	0	ant	24	183	0	stimuli\ant\ant_11s.jpg	10	-1	0	0	ant_11s.jpg	0	0.0	0	65.5915252411505	65.6415236807661	0.0499984396155924	33204
33.304	50	184	0	0	megaphone	993	184	0	stimuli\megaphone\megaphone_02s.jpg	1	-1	0	0	megaphone_02s.jpg	0	0.0	0	65.6915447945939	65.7415234856308	0.049978691036812996	33304
33.404	50	185	0	0	pocket_watch	1206	185	0	stimuli\pocket_watch\pocket_watch_05s.jpg	4	-1	0	1	pocket_watch_05s.jpg	0	0.0	0	65.7915477690985	65.8415279230103	0.049980153911747004	33404
33.504	50	186	0	0	cockroach	373	186	0	stimuli\cockroach\cockroach_01b.jpg	0	-1	0	0	cockroach_01b.jpg	0	0.0	0	65.8915475740796	65.94151480612351	0.0499672320438549	33504
33.604	50	187	0	0	ear	538	187	0	stimuli\ear\ear_05s.jpg	4	-1	0	0	ear_05s.jpg	0	0.0	0	65.99154932948301	66.04152997105851	0.0499806415755302	33604
33.704	50	188	0	0	fern	577	188	0	stimuli\fern\fern_04n.jpg	3	-1	0	0	fern_04n.jpg	0	0.0	0	66.0915564487223	66.1415341645479	0.049977715825661996	33704
33.804	50	189	0	0	airboat	8	189	0	stimuli\airboat\airboat_04s.jpg	3	-1	0	0	airboat_04s.jpg	0	0.0	0	66.1915582041256	66.24153762659991	0.04997942247428	33804
33.904	50	190	0	0	chain	298	190	0	stimuli\chain\chain_10s.jpg	9	-1	0	0	chain_10s.jpg	0	0.0	0	66.2915594719816	66.3415388944559	0.04997942247428	33904
34.004	50	191	0	0	whisk	1811	191	0	stimuli\whisk\whisk_02s.jpg	1	-1	0	0	whisk_02s.jpg	0	0.0	0	66.3915617149323	66.4415399184218	0.0499782034894451	34004
34.104	50	192	0	0	paddle	1094	192	0	stimuli\paddle\paddle_11s.jpg	10	-1	0	0	paddle_11s.jpg	0	0.0	0	66.4915629827883	66.54154191771521	0.0499789349269122	34104
34.204	50	193	0	0	hash	756	193	0	stimuli\hash\hash_08s.jpg	7	-1	0	0	hash_08s.jpg	0	0.0	0	66.5915681514889	66.64154635497829	0.0499782034894451	34204
34.304	50	194	0	0	puffin	1248	194	0	stimuli\puffin\puffin_03s.jpg	2	-1	0	0	puffin_03s.jpg	0	0.0	0	66.69156795647	66.741547866608	0.0499799101380631	34304
34.404	50	195	0	0	petri_dish	1159	195	0	stimuli\petri_dish\petri_dish_12s.jpg	11	-1	0	0	petri_dish_12s.jpg	0	0.0	0	66.7915706872009	66.8415523039876	0.0499816167866811	34404
34.504	50	196	0	0	fuse	652	196	0	stimuli\fuse\fuse_04s.jpg	3	-1	0	0	fuse_04s.jpg	0	0.0	0	66.89157293015161	66.9415535717271	0.0499806415755302	34504
34.604	50	197	0	0	candy_cane	257	197	0	stimuli\candy_cane\candy_cane_04s.jpg	3	-1	0	0	candy_cane_04s.jpg	0	0.0	0	66.9915761484299	67.04155557102061	0.0499794225906953	34604
34.704	50	198	0	0	sheep	1414	198	0	stimuli\sheep\sheep_07s.jpg	6	-1	0	0	sheep_07s.jpg	0	0.0	0	67.0915769286221	67.1415583016351	0.0499813730129972	34704
34.804	50	199	0	0	needle	1055	199	0	stimuli\needle\needle_01s.jpg	0	-1	0	0	needle_01s.jpg	0	0.0	0	67.1915818536654	67.2415598132648	0.0499779595993459	34804
34.904	50	200	0	0	quilt	1264	200	0	stimuli\quilt\quilt_01b.jpg	0	-1	0	0	quilt_01b.jpg	0	0.0	0	67.29158165853	67.3415666887304	0.0499850302003324	34904
35.004	50	201	0	0	ruler	1341	201	0	stimuli\ruler\ruler_10s.jpg	9	-1	0	0	ruler_10s.jpg	0	0.0	0	67.3915938978316	67.4415513774147	0.0499574795830995	35004
35.104	50	202	0	0	scorpion	1384	202	0	stimuli\scorpion\scorpion_06s.jpg	5	-1	0	0	scorpion_06s.jpg	0	0.0	0	67.4915732227964	67.5415516700596	0.0499784472631291	35104
35.204	50	203	0	0	spinach	1515	203	0	stimuli\spinach\spinach_08s.jpg	7	-1	0	0	spinach_08s.jpg	0	0.0	0	67.59157644107471	67.6415707359556	0.0499942948808894	35204
35.304	50	204	0	0	bedpost	110	204	0	stimuli\bedpost\bedpost_10s.jpg	9	-1	0	0	bedpost_10s.jpg	0	0.0	0	67.6915767336031	67.74155883805359	0.0499821044504642	35304
35.404	50	205	0	0	lip_gloss	935	205	0	stimuli\lip_gloss\lip_gloss_08s.jpg	7	-1	0	0	lip_gloss_08s.jpg	0	0.0	0	67.7915809270926	67.8415637629805	0.0499828358879313	35404
35.504	50	206	0	0	wagon	1772	206	0	stimuli\wagon\wagon_10s.jpg	9	-1	0	0	wagon_10s.jpg	0	0.0	0	67.8915870711207	67.9415811222279	0.0499940511072055	35504
35.604	50	207	0	0	watch	1786	207	0	stimuli\watch\watch_08s.jpg	7	-1	0	0	watch_08s.jpg	0	0.0	0	67.9916015046183	68.0415845842799	0.0499830796616152	35604
35.704	50	208	0	0	teapot	1634	208	0	stimuli\teapot\teapot_12s.jpg	11	-1	0	0	teapot_12s.jpg	0	0.0	0	68.09160423534921	68.14158121973739	0.049976984388195	35704
35.804	50	209	0	0	penguin	1145	209	0	stimuli\penguin\penguin_04s.jpg	3	-1	0	0	penguin_04s.jpg	0	0.0	0	68.1916059907526	68.2415744417813	0.0499684510286897	35804
35.904	50	210	0	0	hot_chocolate	803	210	0	stimuli\hot_chocolate\hot_chocolate_09s.jpg	8	-1	0	0	hot_chocolate_09s.jpg	0	0.0	0	68.2916109156795	68.34159009438011	0.0499791787005961	35904
36.004	50	211	0	0	hyena	815	211	0	stimuli\hyena\hyena_06s.jpg	5	-1	0	0	hyena_06s.jpg	0	0.0	0	68.39161559683271	68.4415908745723	0.049975277739577	36004
36.104	50	212	0	0	ice-cream_cone	817	212	0	stimuli\ice-cream_cone\ice-cream_cone_05s.jpg	4	-1	0	0	ice-cream_cone_05s.jpg	0	0.0	0	68.491611013189	68.5415758071467	0.0499647939577699	36104
36.204	50	213	0	0	hourglass	807	213	0	stimuli\hourglass\hourglass_12s.jpg	11	-1	0	0	hourglass_12s.jpg	0	0.0	0	68.59161618188949	68.6416014558636	0.0499852739740163	36204
36.304	50	214	0	0	bug	212	214	0	stimuli\bug\bug_07s.jpg	6	-1	0	0	bug_07s.jpg	0	0.0	0	68.6916176935192	68.7415978475474	0.0499801540281624	36304
36.404	50	215	0	0	measuring_cup	986	215	0	stimuli\measuring_cup\measuring_cup_05s.jpg	4	-1	0	0	measuring_cup_05s.jpg	0	0.0	0	68.7916211556876	68.84158790006771	0.0499667443800718	36404
36.504	50	216	0	0	reel	1299	216	0	stimuli\reel\reel_07s.jpg	6	-1	0	0	reel_07s.jpg	0	0.0	0	68.8916216919897	68.9416047716513	0.0499830796616152	36504
36.604	50	217	0	0	ice_pack	820	217	0	stimuli\ice_pack\ice_pack_01b.jpg	0	-1	0	0	ice_pack_01b.jpg	0	0.0	0	68.9916290551191	69.0416065270547	0.0499774719355628	36604
36.704	50	218	0	0	binoculars	127	218	0	stimuli\binoculars\binoculars_03s.jpg	2	-1	0	0	binoculars_03s.jpg	0	0.0	0	69.09163056663239	69.14161096443421	0.0499803978018463	36704
36.804	50	219	0	0	combination_lock	390	219	0	stimuli\combination_lock\combination_lock_05s.jpg	4	-1	0	0	combination_lock_05s.jpg	0	0.0	0	69.1916147678858	69.2415949217975	0.049980153911747004	36804
36.904	50	220	0	0	blazer	137	220	0	stimuli\blazer\blazer_08s.jpg	7	-1	0	0	blazer_08s.jpg	0	0.0	0	69.2916355404304	69.3416127685923	0.0499772281618789	36904
37.004	50	221	0	0	coyote	427	221	0	stimuli\coyote\coyote_10s.jpg	9	-1	0	0	coyote_10s.jpg	0	0.0	0	69.39163680816999	69.4416113544721	0.049974546302110005	37004
37.104	50	222	0	0	laundry_basket	902	222	0	stimuli\laundry_basket\laundry_basket_02s.jpg	1	-1	0	0	laundry_basket_02s.jpg	0	0.0	0	69.491634175065	69.54162018036	0.049986005295068	37104
37.204	50	223	0	0	chinchilla	332	223	0	stimuli\chinchilla\chinchilla_01b.jpg	0	-1	0	0	chinchilla_01b.jpg	0	0.0	0	69.5916366619058	69.6416212044423	0.0499845425365493	37204
37.304	50	224	0	0	burrito	225	224	0	stimuli\burrito\burrito_11s.jpg	10	-1	0	0	burrito_11s.jpg	0	0.0	0	69.6916398801841	69.7416232036194	0.0499833234352991	37304
37.404	50	225	0	0	typewriter	1741	225	0	stimuli\typewriter\typewriter_09s.jpg	8	-1	0	1	typewriter_09s.jpg	0	0.0	0	69.7916450490011	69.8416264218977	0.0499813728965819	37404
37.504	50	226	0	0	pot	1230	226	0	stimuli\pot\pot_01b.jpg	0	-1	0	0	pot_01b.jpg	0	0.0	0	69.89164899871679	69.9416262268787	0.0499772281618789	37504
37.604	50	227	0	0	beaver	107	227	0	stimuli\beaver\beaver_01b.jpg	0	-1	0	0	beaver_01b.jpg	0	0.0	0	69.9916492912453	70.0416316394694	0.0499823482241482	37604
37.704	50	228	0	0	bucket	209	228	0	stimuli\bucket\bucket_01b.jpg	0	-1	0	0	bucket_01b.jpg	0	0.0	0	70.09165494760961	70.1416304691229	0.0499755215132609	37704
37.804	50	229	0	0	aardvark	0	229	0	stimuli\aardvark\aardvark_08s.jpg	7	-1	0	0	aardvark_08s.jpg	0	0.0	0	70.1916549963644	70.24160979408771	0.0499547977233306	37804
37.904	50	230	0	0	pheasant	1160	230	0	stimuli\pheasant\pheasant_08s.jpg	7	-1	0	0	pheasant_08s.jpg	0	0.0	0	70.2916311518056	70.3416437323904	0.0500125805847347	37904
38.004	50	231	0	0	tongs	1674	231	0	stimuli\tongs\tongs_03s.jpg	2	-1	0	0	tongs_03s.jpg	0	0.0	0	70.3916641147807	70.44163841730919	0.0499743025284261	38004
38.104	50	232	0	0	painting	1098	232	0	stimuli\painting\painting_02s.jpg	1	-1	0	0	painting_02s.jpg	0	0.0	0	70.4916678207228	70.5416292013833	0.0499613806605339	38104
38.204	50	233	0	0	bubble	207	233	0	stimuli\bubble\bubble_06n.jpg	5	-1	0	0	bubble_06n.jpg	0	0.0	0	70.591668600915	70.6416450977558	0.0499764968408272	38204
38.304	50	234	0	0	hand	744	234	0	stimuli\hand\hand_09s.jpg	8	-1	0	0	hand_09s.jpg	0	0.0	0	70.6916696248809	70.74163198075259	0.0499623558716848	38304
38.404	50	235	0	0	punching_bag	1256	235	0	stimuli\punching_bag\punching_bag_04s.jpg	3	-1	0	0	punching_bag_04s.jpg	0	0.0	0	70.7916708927369	70.8416515343124	0.0499806415755302	38404
38.504	50	236	0	0	badge	52	236	0	stimuli\badge\badge_12s.jpg	11	-1	0	0	badge_12s.jpg	0	0.0	0	70.8916726481402	70.94165353348941	0.0499808853492141	38504
38.604	50	237	0	0	blouse	144	237	0	stimuli\blouse\blouse_05s.jpg	4	-1	0	0	blouse_05s.jpg	0	0.0	0	70.99167562264479	71.0416577269789	0.0499821043340489	38604
38.704	50	238	0	0	coverall	425	238	0	stimuli\coverall\coverall_02s.jpg	1	-1	0	0	coverall_02s.jpg	0	0.0	0	71.09167957236059	71.1416609452572	0.0499813728965819	38704
38.804	50	239	0	0	puppet	1257	239	0	stimuli\puppet\puppet_04s.jpg	3	-1	0	0	puppet_04s.jpg	0	0.0	0	71.1916818154277	71.2416614816757	0.0499796662479639	38804
38.904	50	240	0	0	hearing_aid	770	240	0	stimuli\hearing_aid\hearing_aid_05s.jpg	4	-1	0	0	hearing_aid_05s.jpg	0	0.0	0	71.29168137651871	71.34165445994591	0.0499730834271759	38904
39.004	50	241	0	0	champagne	304	241	0	stimuli\champagne\champagne_09s.jpg	8	-1	0	0	champagne_09s.jpg	0	0.0	0	71.3916865453357	71.44166304206009	0.0499764967244118	39004
39.104	50	242	0	0	teepee	1637	242	0	stimuli\teepee\teepee_03s.jpg	2	-1	0	0	teepee_03s.jpg	0	0.0	0	71.4916861064266	71.5416699175257	0.0499838110990822	39104
39.204	50	243	0	0	drawer	516	243	0	stimuli\drawer\drawer_10s.jpg	9	-1	0	0	drawer_10s.jpg	0	0.0	0	71.59168883704109	71.6416687471792	0.0499799101380631	39204
39.304	50	244	0	0	gravy	711	244	0	stimuli\gravy\gravy_07s.jpg	6	-1	0	0	gravy_07s.jpg	0	0.0	0	71.6916937620845	71.741669039824	0.049975277739577	39304
39.404	50	245	0	0	pothole	1233	245	0	stimuli\pothole\pothole_10n.jpg	9	-1	0	0	pothole_10n.jpg	0	0.0	0	71.7916955174878	71.84168054757171	0.0499850300839171	39404
39.504	50	246	0	0	handbrake	745	246	0	stimuli\handbrake\handbrake_08s.jpg	7	-1	0	1	handbrake_08s.jpg	0	0.0	0	71.89169654145371	71.9416801086627	0.049983567208983004	39504
39.604	50	247	0	0	maple_syrup	971	247	0	stimuli\maple_syrup\maple_syrup_02s.jpg	1	-1	0	0	maple_syrup_02s.jpg	0	0.0	0	71.99169683398209	72.0416779632214	0.0499811292393133	39604
39.704	50	248	0	0	can_opener	251	248	0	stimuli\can_opener\can_opener_01b.jpg	0	-1	0	0	can_opener_01b.jpg	0	0.0	0	72.0917005399242	72.1416848385707	0.049984298646449994	39704
39.804	50	249	0	0	cage	236	249	0	stimuli\cage\cage_11s.jpg	10	-1	0	0	cage_11s.jpg	0	0.0	0	72.1917022953276	72.2416880568489	0.0499857615213841	39804
39.904	50	250	0	0	microscope	999	250	0	stimuli\microscope\microscope_11s.jpg	10	-1	0	0	microscope_11s.jpg	0	0.0	0	72.291708195582	72.34168883704109	0.0499806414591148	39904
40.004	50	251	0	0	machine_gun	954	251	0	stimuli\machine_gun\machine_gun_06s.jpg	5	-1	0	0	machine_gun_06s.jpg	0	0.0	0	72.3917109261965	72.4416871791473	0.0499762529507279	40004
40.104	50	252	0	0	match	983	252	0	stimuli\match\match_02s.jpg	1	-1	0	0	match_02s.jpg	0	0.0	0	72.49171097495129	72.5416899098782	0.0499789349269122	40104
40.204	50	253	0	0	meatloaf	990	253	0	stimuli\meatloaf\meatloaf_08s.jpg	7	-1	0	0	meatloaf_08s.jpg	0	0.0	0	72.59171663131559	72.64169507857879	0.0499784472631291	40204
40.304	50	254	0	0	fox	638	254	0	stimuli\fox\fox_12s.jpg	11	-1	0	0	fox_12s.jpg	0	0.0	0	72.6917159486329	72.74169683398209	0.0499808853492141	40304
40.404	50	255	0	0	bow2	175	255	0	stimuli\bow2\bow2_06s.jpg	5	-1	0	0	bow2_06s.jpg	0	0.0	0	72.7917198983487	72.84170078369792	0.0499808853492141	40404
40.504	50	256	0	0	whipped_cream	1810	256	0	stimuli\whipped_cream\whipped_cream_12s.jpg	11	-1	0	0	whipped_cream_12s.jpg	0	0.0	0	72.8917240918381	72.9416998572415	0.0499757654033601	40504
40.604	50	257	0	0	tapestry	1625	257	0	stimuli\tapestry\tapestry_01b.jpg	0	-1	0	0	tapestry_01b.jpg	0	0.0	0	72.9917260911316	73.04170185653491	0.0499757654033601	40604
40.704	50	258	0	0	stamp1	1535	258	0	stimuli\stamp1\stamp1_04s.jpg	3	-1	0	0	stamp1_04s.jpg	0	0.0	0	73.0917249209015	73.1417070252355	0.0499821043340489	40704
40.804	50	259	0	0	granola	701	259	0	stimuli\granola\granola_09s.jpg	8	-1	0	0	granola_09s.jpg	0	0.0	0	73.1917300896021	73.2417068302166	0.0499767406145111	40804
40.904	50	260	0	0	splinter	1516	260	0	stimuli\splinter\splinter_11s.jpg	10	-1	0	0	splinter_11s.jpg	0	0.0	0	73.29172891937199	73.3417115113698	0.0499825919978321	40904
41.004	50	261	0	0	easel	542	261	0	stimuli\easel\easel_02s.jpg	1	-1	0	0	easel_02s.jpg	0	0.0	0	73.3917396956822	73.44171399821059	0.0499743025284261	41004
41.104	50	262	0	0	mask	980	262	0	stimuli\mask\mask_06s.jpg	5	-1	0	0	mask_06s.jpg	0	0.0	0	73.4917368186871	73.5417186793638	0.0499818606767803	41104
41.204	50	263	0	0	shell1	1417	263	0	stimuli\shell1\shell1_04s.jpg	3	-1	0	0	shell1_04s.jpg	0	0.0	0	73.5917388179805	73.64171848422849	0.0499796662479639	41204
41.304	50	264	0	0	chin	330	264	0	stimuli\chin\chin_12s.jpg	11	-1	0	0	chin_12s.jpg	0	0.0	0	73.6917427676963	73.74171999585809	0.0499772281618789	41304
41.404	50	265	0	0	net	1057	265	0	stimuli\net\net_04s.jpg	3	-1	0	0	net_04s.jpg	0	0.0	0	73.7917476926232	73.84172784653491	0.049980153911747004	41404
41.504	50	266	0	0	backdrop	47	266	0	stimuli\backdrop\backdrop_08s.jpg	7	-1	0	0	backdrop_08s.jpg	0	0.0	0	73.891744815628	73.9417266763048	0.0499818606767803	41504
41.604	50	267	0	0	cot	420	267	0	stimuli\cot\cot_05s.jpg	4	-1	0	0	cot_05s.jpg	0	0.0	0	73.9917490092339	74.0417303821305	0.0499813728965819	41604
41.704	50	268	0	0	orchid	1081	268	0	stimuli\orchid\orchid_09s.jpg	8	-1	0	0	orchid_09s.jpg	0	0.0	0	74.0917524712859	74.14173262519759	0.049980153911747004	41704
41.804	50	269	0	0	walnut	1778	269	0	stimuli\walnut\walnut_01b.jpg	0	-1	0	0	walnut_01b.jpg	0	0.0	0	74.1917520323768	74.2417331616161	0.0499811292393133	41804
41.904	50	270	0	0	chair	300	270	0	stimuli\chair\chair_07s.jpg	6	-1	0	0	chair_07s.jpg	0	0.0	0	74.2917676849756	74.3417407684028	0.0499730834271759	41904
42.004	50	271	0	0	sheath	1413	271	0	stimuli\sheath\sheath_11s.jpg	10	-1	0	0	sheath_11s.jpg	0	0.0	0	74.3917609071359	74.4417381352978	0.0499772281618789	42004
42.104	50	272	0	0	paper	1112	272	0	stimuli\paper\paper_02s.jpg	1	-1	0	0	paper_02s.jpg	0	0.0	0	74.4917599805631	74.54172233643479	0.0499623558716848	42104
42.204	50	273	0	0	bagel	55	273	0	stimuli\bagel\bagel_01s.jpg	0	-1	0	0	bagel_01s.jpg	0	0.0	0	74.5917631988414	74.6417426214321	0.0499794225906953	42204
42.304	50	274	0	0	stick	1552	274	0	stimuli\stick\stick_10s.jpg	9	-1	0	0	stick_10s.jpg	0	0.0	0	74.6917654419085	74.7417448643828	0.04997942247428	42304
42.404	50	275	0	0	sunglasses	1585	275	0	stimuli\sunglasses\sunglasses_09s.jpg	8	-1	0	0	sunglasses_09s.jpg	0	0.0	0	74.7917496430455	74.84175832266921	0.0500086796237156	42404
42.504	50	276	0	0	flashbulb	610	276	0	stimuli\flashbulb\flashbulb_01b.jpg	0	-1	0	0	flashbulb_01b.jpg	0	0.0	0	74.8917750479886	74.94173886673521	0.0499638187466189	42504
42.604	50	277	0	0	roadsweeper	1316	277	0	stimuli\roadsweeper\roadsweeper_06s.jpg	5	-1	0	0	roadsweeper_06s.jpg	0	0.0	0	74.99177558440721	75.0417630525772	0.0499874681700021	42604
42.704	50	278	0	0	brace	186	278	0	stimuli\brace\brace_04s.jpg	3	-1	0	0	brace_04s.jpg	0	0.0	0	75.0917817284353	75.14175798138601	0.0499762529507279	42704
42.804	50	279	0	0	shoehorn	1425	279	0	stimuli\shoehorn\shoehorn_01b.jpg	0	-1	0	0	shoehorn_01b.jpg	0	0.0	0	75.1917825086275	75.24174510827291	0.0499625996453688	42804
42.904	50	280	0	0	duster	534	280	0	stimuli\duster\duster_04s.jpg	3	-1	0	0	duster_04s.jpg	0	0.0	0	75.291785239242	75.34177246363829	0.0499872243963182	42904
43.004	50	281	0	0	noodle	1061	281	0	stimuli\noodle\noodle_09s.jpg	8	-1	0	0	noodle_09s.jpg	0	0.0	0	75.391786507098	75.4417666610098	0.049980153911747004	43004
43.104	50	282	0	0	hanger	751	282	0	stimuli\hanger\hanger_08n.jpg	7	-1	0	0	hanger_08n.jpg	0	0.0	0	75.4918021595804	75.54177743732	0.049975277739577	43104
43.204	50	283	0	0	chute	342	283	0	stimuli\chute\chute_07s.jpg	6	-1	0	0	chute_07s.jpg	0	0.0	0	75.5917941626394	75.6417962594423	0.0500020968029276	43204
43.304	50	284	0	0	gurney	728	284	0	stimuli\gurney\gurney_12s.jpg	11	-1	0	0	gurney_12s.jpg	0	0.0	0	75.6917781200027	75.7417738777585	0.0499957577558234	43304
43.404	50	285	0	0	cuckoo_clock	456	285	0	stimuli\cuckoo_clock\cuckoo_clock_03s.jpg	2	-1	0	0	cuckoo_clock_03s.jpg	0	0.0	0	75.79179791733621	75.8417817284353	0.0499838110990822	43404
43.504	50	286	0	0	overalls	1090	286	0	stimuli\overalls\overalls_09s.jpg	8	-1	0	0	overalls_09s.jpg	0	0.0	0	75.8918011356145	75.9417630038224	0.0499618682079017	43504
43.604	50	287	0	0	pantsuit	1109	287	0	stimuli\pantsuit\pantsuit_09s.jpg	8	-1	0	0	pantsuit_09s.jpg	0	0.0	0	75.9918006967055	76.0417840201408	0.0499833234352991	43604
43.704	50	288	0	0	mousetrap	1029	288	0	stimuli\mousetrap\mousetrap_11s.jpg	10	-1	0	0	mousetrap_11s.jpg	0	0.0	0	76.0918068407336	76.141786507098	0.0499796663643792	43704
43.804	50	289	0	0	giraffe	675	289	0	stimuli\giraffe\giraffe_11s.jpg	10	-1	0	0	giraffe_11s.jpg	0	0.0	0	76.1918078646995	76.2417699767975	0.0499621120980009	43804
43.904	50	290	0	0	retainer	1303	290	0	stimuli\retainer\retainer_11s.jpg	10	-1	0	0	retainer_11s.jpg	0	0.0	0	76.29181205830541	76.3417778274743	0.0499657691689208	43904
44.004	50	291	0	0	straw1	1568	291	0	stimuli\straw1\straw1_03s.jpg	2	-1	0	0	straw1_03s.jpg	0	0.0	0	76.3918123508338	76.44179567426909	0.0499833234352991	44004
44.104	50	292	0	0	punch2	1255	292	0	stimuli\punch2\punch2_06s.jpg	5	-1	0	0	punch2_06s.jpg	0	0.0	0	76.4918141062371	76.5417971858988	0.0499830796616152	44104
44.204	50	293	0	0	sticker	1553	293	0	stimuli\sticker\sticker_03s.jpg	2	-1	0	0	sticker_03s.jpg	0	0.0	0	76.59181903116409	76.6417818746995	0.04996284353546799	44204
44.304	50	294	0	0	cooker	399	294	0	stimuli\cooker\cooker_01b.jpg	0	-1	0	0	cooker_01b.jpg	0	0.0	0	76.6918198113563	76.7417848492041	0.0499650378478691	44304
44.404	50	295	0	0	dishrag	490	295	0	stimuli\dishrag\dishrag_09s.jpg	8	-1	0	0	dishrag_09s.jpg	0	0.0	0	76.791827662033	76.84180464642121	0.049976984388195	44404
44.504	50	296	0	0	tee	1636	296	0	stimuli\tee\tee_12s.jpg	11	-1	0	0	tee_12s.jpg	0	0.0	0	76.89182576036549	76.9418076209258	0.049981860560364993	44504
44.604	50	297	0	0	thorn	1650	297	0	stimuli\thorn\thorn_09s.jpg	8	-1	0	0	thorn_09s.jpg	0	0.0	0	76.991824590019	77.0418091325555	0.0499845425365493	44604
44.704	50	298	0	0	curry	464	298	0	stimuli\curry\curry_09s.jpg	8	-1	0	0	curry_09s.jpg	0	0.0	0	77.09183146548459	77.1418104002951	0.0499789348104969	44704
44.804	50	299	0	0	cork	409	299	0	stimuli\cork\cork_04s.jpg	3	-1	0	0	cork_04s.jpg	0	0.0	0	77.19183273322409	77.2417970396345	0.0499643064104021	44804
44.904	50	300	0	0	noisemaker	1060	300	0	stimuli\noisemaker\noisemaker_05s.jpg	4	-1	0	0	noisemaker_05s.jpg	0	0.0	0	77.2918347325176	77.3418163493043	0.0499816167866811	44904
45.004	50	301	0	0	mixer	1009	301	0	stimuli\mixer\mixer_11s.jpg	10	-1	0	0	mixer_11s.jpg	0	0.0	0	77.3918218594044	77.4418166418327	0.0499947824282572	45004
45.104	50	302	0	0	straw2	1569	302	0	stimuli\straw2\straw2_08s.jpg	7	-1	0	0	straw2_08s.jpg	0	0.0	0	77.49183775577691	77.5418193725636	0.0499816167866811	45104
45.204	50	303	0	0	tube_top	1724	303	0	stimuli\tube_top\tube_top_04s.jpg	3	-1	0	0	tube_top_04s.jpg	0	0.0	0	77.5918429244775	77.6418274670141	0.0499845425365493	45204
45.304	50	304	0	0	ball	59	304	0	stimuli\ball\ball_05s.jpg	4	-1	0	0	ball_05s.jpg	0	0.0	0	77.691844923771	77.7418258091202	0.0499808853492141	45304
45.404	50	305	0	0	baklava	57	305	0	stimuli\baklava\baklava_06s.jpg	5	-1	0	0	baklava_06s.jpg	0	0.0	0	77.79184716672171	77.8418312217109	0.0499840549891815	45404
45.504	50	306	0	0	fast_food	572	306	0	stimuli\fast_food\fast_food_11s.jpg	10	-1	0	0	fast_food_11s.jpg	0	0.0	0	77.89183600037359	77.9418307828018	0.0499947824282572	45504
45.604	50	307	0	0	manhole	967	307	0	stimuli\manhole\manhole_04n.jpg	3	-1	0	0	manhole_04n.jpg	0	0.0	0	77.99185189662971	78.0418322944315	0.0499803978018463	45604
45.704	50	308	0	0	dumbbell	530	308	0	stimuli\dumbbell\dumbbell_02s.jpg	1	-1	0	0	dumbbell_02s.jpg	0	0.0	0	78.09184024261779	78.1418381945696	0.0499979519518092	45704
59.388	50	309	0	0	confetti	396	0	1	stimuli\confetti\confetti_10s.jpg	9	-1	1	0	confetti_10s.jpg	1	0.0	0	91.7755273105577	91.82550575782079	0.0499784472631291	59388
59.488	50	310	0	0	shell2	1418	1	1	stimuli\shell2\shell2_03s.jpg	2	-1	1	0	shell2_03s.jpg	0	0.0	0	91.87552711553872	91.92551409616141	0.0499869806226343	59488
59.588	50	311	0	0	pretzel	1239	2	1	stimuli\pretzel\pretzel_11s.jpg	10	-1	1	0	pretzel_11s.jpg	0	0.0	0	91.9755330156768	92.02551926486191	0.0499862491851673	59588
59.688	50	312	0	0	grass	705	3	1	stimuli\grass\grass_08s.jpg	7	-1	1	0	grass_08s.jpg	0	0.0	0	92.0755379406037	92.1255351612344	0.0499972206307575	59688
59.788	50	313	0	0	lemonade	915	4	1	stimuli\lemonade\lemonade_12s.jpg	11	-1	1	0	lemonade_12s.jpg	0	0.0	0	92.1755321379751	92.22552082524629	0.0499886872712523	59788
59.888	50	314	0	0	snowball	1480	5	1	stimuli\snowball\snowball_12s.jpg	11	-1	1	0	snowball_12s.jpg	0	0.0	0	92.2755429144017	92.3255186796887	0.0499757652869448	59888
59.988	50	315	0	0	grille	715	6	1	stimuli\grille\grille_08s.jpg	7	-1	1	0	grille_08s.jpg	0	0.0	0	92.3755378430942	92.4255231170682	0.0499852739740163	59988
60.088	50	316	0	0	handcuff	746	7	1	stimuli\handcuff\handcuff_01b.jpg	0	-1	1	0	handcuff_01b.jpg	0	0.0	0	92.47554861952091	92.52552487247159	0.0499762529507279	60088
60.188	50	317	0	0	bonsai	164	8	1	stimuli\bonsai\bonsai_12s.jpg	11	-1	1	0	bonsai_12s.jpg	0	0.0	0	92.5755503749242	92.62552809074991	0.049977715825661996	60188
60.288	50	318	0	0	crumb	451	9	1	stimuli\crumb\crumb_12s.jpg	11	-1	1	0	crumb_12s.jpg	0	0.0	0	92.67555481218729	92.7255352099892	0.0499803978018463	60288
60.388	50	319	0	0	swimming_pool	1596	10	1	stimuli\swimming_pool\swimming_pool_01b.jpg	0	-1	1	0	swimming_pool_01b.jpg	0	0.0	0	92.7755553486058	92.82553111400921	0.0499757654033601	60388
60.488	50	320	0	0	stilt	1555	11	1	stimuli\stilt\stilt_09s.jpg	8	-1	1	0	stilt_09s.jpg	0	0.0	0	92.87555247172709	92.9255348198349	0.0499823481077328	60488
60.588	50	321	0	0	mallet	962	12	1	stimuli\mallet\mallet_08s.jpg	7	-1	1	0	mallet_08s.jpg	0	0.0	0	92.9755581280915	93.0255387695506	0.0499806414591148	60588
60.688	50	322	0	0	cookie_sheet	402	13	1	stimuli\cookie_sheet\cookie_sheet_03s.jpg	2	-1	1	0	cookie_sheet_03s.jpg	0	0.0	0	93.0755574454088	93.12553759932051	0.049980153911747004	60688
60.788	50	323	0	0	gondola	691	14	1	stimuli\gondola\gondola_12s.jpg	11	-1	1	0	gondola_12s.jpg	0	0.0	0	93.1755601760233	93.22554203670009	0.0499818606767803	60788
60.888	50	324	0	0	corset	418	15	1	stimuli\corset\corset_12s.jpg	11	-1	1	0	corset_12s.jpg	0	0.0	0	93.27556753903629	93.3255474491743	0.0499799101380631	60888
60.988	50	325	0	0	meat_grinder	988	16	1	stimuli\meat_grinder\meat_grinder_11s.jpg	10	-1	1	0	meat_grinder_11s.jpg	0	0.0	0	93.37556417449379	93.425545059843	0.0499808853492141	60988
61.088	50	326	0	0	rain_gauge	1278	17	1	stimuli\rain_gauge\rain_gauge_04s.jpg	3	-1	1	0	rain_gauge_04s.jpg	0	0.0	0	93.47556983085809	93.5255509600975	0.0499811292393133	61088
61.188	50	327	0	0	pug	1249	18	1	stimuli\pug\pug_09s.jpg	8	-1	1	0	pug_09s.jpg	0	0.0	0	93.5755691481754	93.6255551535869	0.0499860054114833	61188
61.288	50	328	0	0	acorn	3	19	1	stimuli\acorn\acorn_08s.jpg	7	-1	1	0	acorn_08s.jpg	0	0.0	0	93.6755801683757	93.7255615413887	0.0499813730129972	61288
61.388	50	329	0	0	mast	981	20	1	stimuli\mast\mast_03s.jpg	2	-1	1	0	mast_03s.jpg	0	0.0	0	93.7755807047943	93.8255667100893	0.049986005295068	61388
61.488	50	330	0	0	rubber_band	1337	21	1	stimuli\rubber_band\rubber_band_09s.jpg	8	-1	1	0	rubber_band_09s.jpg	0	0.0	0	93.8755848982837	93.9255609074607	0.049976009177044006	61488
61.588	50	331	0	0	grapevine	704	22	1	stimuli\grapevine\grapevine_01b.jpg	0	-1	1	0	grapevine_01b.jpg	0	0.0	0	93.9755873851245	94.025569489575	0.0499821044504642	61588
61.688	50	332	0	0	robe	1317	23	1	stimuli\robe\robe_06s.jpg	5	-1	1	0	robe_06s.jpg	0	0.0	0	94.0756020625122	94.1255710012047	0.0499689386924729	61688
61.788	50	333	0	0	bouquet	173	24	1	stimuli\bouquet\bouquet_05s.jpg	4	-1	1	0	bouquet_05s.jpg	0	0.0	0	94.17558918939899	94.2255734880455	0.049984298646449994	61788
61.888	50	334	0	0	sandal	1352	25	1	stimuli\sandal\sandal_08s.jpg	7	-1	1	0	sandal_08s.jpg	0	0.0	0	94.27559874660801	94.32557621865999	0.0499774720519781	61888
61.988	50	335	0	0	camel	245	26	1	stimuli\camel\camel_09s.jpg	8	-1	1	0	camel_09s.jpg	0	0.0	0	94.3755931878695	94.4255748046562	0.0499816167866811	61988
62.088	50	336	0	0	hookah	795	27	1	stimuli\hookah\hookah_02s.jpg	1	-1	1	0	hookah_02s.jpg	0	0.0	0	94.4755968936952	94.52557192766109	0.0499750339658931	62088
62.188	50	337	0	0	skirt	1457	28	1	stimuli\skirt\skirt_02s.jpg	1	-1	1	0	skirt_02s.jpg	0	0.0	0	94.5755935291527	94.6255770963617	0.049983567208983004	62188
62.288	50	338	0	0	cordon_bleu	408	29	1	stimuli\cordon_bleu\cordon_bleu_10s.jpg	9	-1	1	0	cordon_bleu_10s.jpg	0	0.0	0	94.67559504078241	94.72559250518681	0.0499974644044414	62288
62.388	50	339	0	0	mashed_potato	979	30	1	stimuli\mashed_potato\mashed_potato_06s.jpg	5	-1	1	0	mashed_potato_06s.jpg	0	0.0	0	94.7756048418814	94.82558109483222	0.0499762529507279	62388
62.488	50	340	0	0	clove	365	31	1	stimuli\clove\clove_12s.jpg	11	-1	1	0	clove_12s.jpg	0	0.0	0	94.8756112296833	94.925585288438	0.0499740587547421	62488
62.588	50	341	0	0	wrap	1837	32	1	stimuli\wrap\wrap_10s.jpg	9	-1	1	0	wrap_10s.jpg	0	0.0	0	94.9756056708284	95.0255865561776	0.0499808853492141	62588
62.688	50	342	0	0	remote_control	1302	33	1	stimuli\remote_control\remote_control_07s.jpg	6	-1	1	0	remote_control_07s.jpg	0	0.0	0	95.075607182458	95.12558879924471	0.0499816167866811	62688
62.788	50	343	0	0	glove	680	34	1	stimuli\glove\glove_11s.jpg	10	-1	1	0	glove_11s.jpg	0	0.0	0	95.1756162521197	95.2256007946562	0.0499845425365493	62788
62.888	50	344	0	0	bowl	177	35	1	stimuli\bowl\bowl_02s.jpg	1	-1	1	0	bowl_02s.jpg	0	0.0	0	95.27561898285059	95.3255940168165	0.0499750339658931	62888
62.988	50	345	0	0	snorkel	1478	36	1	stimuli\snorkel\snorkel_01b.jpg	0	-1	1	0	snorkel_01b.jpg	0	0.0	0	95.3756141554331	95.4255960159935	0.049981860560364993	62988
63.088	50	346	0	0	hula_hoop	810	37	1	stimuli\hula_hoop\hula_hoop_03s.jpg	2	-1	1	0	hula_hoop_03s.jpg	0	0.0	0	95.4756417545723	95.5255999657093	0.0499582111369818	63088
63.188	50	347	0	0	luggage	948	38	1	stimuli\luggage\luggage_04s.jpg	3	-1	1	0	luggage_04s.jpg	0	0.0	0	95.5756191291148	95.62560732872231	0.0499881996074691	63188
63.288	50	348	0	0	touchpad	1691	39	1	stimuli\touchpad\touchpad_03s.jpg	2	-1	1	0	touchpad_03s.jpg	0	0.0	0	95.67562185972929	95.72560884035191	0.0499869806226343	63288
63.388	50	349	0	0	spout	1520	40	1	stimuli\spout\spout_03s.jpg	2	-1	1	0	spout_03s.jpg	0	0.0	0	95.77562873519491	95.825607182458	0.0499784472631291	63388
63.488	50	350	0	0	snowplow	1484	41	1	stimuli\snowplow\snowplow_06n.jpg	5	-1	1	0	snowplow_06n.jpg	0	0.0	0	95.87562902772329	95.9256157645723	0.0499867368489504	63488
63.588	50	351	0	0	chickpea	325	42	1	stimuli\chickpea\chickpea_01b.jpg	0	-1	1	0	chickpea_01b.jpg	0	0.0	0	95.9756295641419	96.02561459422579	0.0499850300839171	63588
63.688	50	352	0	0	cinnamon	348	43	1	stimuli\cinnamon\cinnamon_01b.jpg	0	-1	1	0	cinnamon_01b.jpg	0	0.0	0	96.07563180720899	96.12561391154301	0.0499821043340489	63688
63.788	50	353	0	0	cannon	260	44	1	stimuli\cannon\cannon_11s.jpg	10	-1	1	0	cannon_11s.jpg	0	0.0	0	96.17563551303459	96.2256198117975	0.0499842987628654	63788
63.888	50	354	0	0	bagpipe	56	45	1	stimuli\bagpipe\bagpipe_01b.jpg	0	-1	1	0	bagpipe_01b.jpg	0	0.0	0	96.2756445828127	96.3256230300758	0.0499784472631291	63888
63.988	50	355	0	0	tape	1622	46	1	stimuli\tape\tape_10s.jpg	9	-1	1	0	tape_10s.jpg	0	0.0	0	96.37564097438009	96.4256216159556	0.0499806415755302	63988
64.088	50	356	0	0	poinsettia	1209	47	1	stimuli\poinsettia\poinsettia_08s.jpg	7	-1	1	0	poinsettia_08s.jpg	0	0.0	0	96.4756449240958	96.52562678477258	0.0499818606767803	64088
64.188	50	357	0	0	warthog	1781	48	1	stimuli\warthog\warthog_09s.jpg	8	-1	1	0	warthog_09s.jpg	0	0.0	0	96.57564302242831	96.6256273210747	0.049984298646449994	64188
64.288	50	358	0	0	saddle	1343	49	1	stimuli\saddle\saddle_02s.jpg	1	-1	1	0	saddle_02s.jpg	0	0.0	0	96.6756498977775	96.7256300518056	0.0499801540281624	64288
64.388	50	359	0	0	chainsaw	299	50	1	stimuli\chainsaw\chainsaw_06s.jpg	5	-1	1	0	chainsaw_06s.jpg	0	0.0	0	96.77565652946942	96.82563400152142	0.0499774720519781	64388
64.488	50	360	0	0	pump	1252	51	1	stimuli\pump\pump_03s.jpg	2	-1	1	0	pump_03s.jpg	0	0.0	0	96.8756548715755	96.9256384387845	0.049983567208983004	64488
64.588	50	361	0	0	pony	1220	52	1	stimuli\pony\pony_07s.jpg	6	-1	1	0	pony_07s.jpg	0	0.0	0	96.975659065065	97.025640438078	0.0499813730129972	64588
64.688	50	362	0	0	t-shirt	1606	53	1	stimuli\t-shirt\t-shirt_12s.jpg	11	-1	1	0	t-shirt_12s.jpg	0	0.0	0	97.07565716339741	97.1256421934813	0.0499850300839171	64688
64.788	50	363	0	0	sail	1346	54	1	stimuli\sail\sail_02s.jpg	1	-1	1	0	sail_02s.jpg	0	0.0	0	97.1756591625744	97.22564346122091	0.049984298646449994	64788
64.888	50	364	0	0	tweezers	1739	55	1	stimuli\tweezers\tweezers_01b.jpg	0	-1	1	0	tweezers_01b.jpg	0	0.0	0	97.2756645751651	97.3256464357255	0.049981860560364993	64888
64.988	50	365	0	0	chest1	319	56	1	stimuli\chest1\chest1_06s.jpg	5	-1	1	0	chest1_06s.jpg	0	0.0	0	97.3756663305685	97.4256528235273	0.0499864929588512	64988
65.088	50	366	0	0	pasta	1123	57	1	stimuli\pasta\pasta_12s.jpg	11	-1	1	0	pasta_12s.jpg	0	0.0	0	97.4756700365106	97.52565287228208	0.049982835771516	65088
65.188	50	367	0	0	parsley	1122	58	1	stimuli\parsley\parsley_08s.jpg	7	-1	1	0	parsley_08s.jpg	0	0.0	0	97.57567423	97.6256548715755	0.0499806415755302	65188
65.288	50	368	0	0	car_door	268	59	1	stimuli\car_door\car_door_08s.jpg	7	-1	1	0	car_door_08s.jpg	0	0.0	0	97.675676229177	97.7256541888928	0.0499779597157612	65288
65.388	50	369	0	0	avocado	43	60	1	stimuli\avocado\avocado_09s.jpg	8	-1	1	0	avocado_09s.jpg	0	0.0	0	97.7756765218219	97.8256569195073	0.0499803976854309	65388
65.488	50	370	0	0	appetizer	29	61	1	stimuli\appetizer\appetizer_11s.jpg	10	-1	1	0	appetizer_11s.jpg	0	0.0	0	97.87567803345149	97.9256611129967	0.0499830795451999	65488
65.588	50	371	0	0	rooster	1330	62	1	stimuli\rooster\rooster_06s.jpg	5	-1	1	0	rooster_06s.jpg	0	0.0	0	97.97568368981591	98.0256623808527	0.049978691036812996	65588
65.688	50	372	0	0	buckle	210	63	1	stimuli\buckle\buckle_02s.jpg	1	-1	1	1	buckle_02s.jpg	0	0.0	0	98.0756861766567	98.12566730577959	0.04998112912289799	65688
65.788	50	373	0	0	orange	1078	64	1	stimuli\orange\orange_06s.jpg	5	-1	1	0	orange_06s.jpg	0	0.0	0	98.17568525020029	98.2256685736356	0.0499833234352991	65788
65.888	50	374	0	0	catapult	285	65	1	stimuli\catapult\catapult_04s.jpg	3	-1	1	0	catapult_04s.jpg	0	0.0	0	98.27569066267459	98.3256693538278	0.0499786911532283	65888
65.988	50	375	0	0	train_car	1699	66	1	stimuli\train_car\train_car_08n.jpg	7	-1	1	0	train_car_08n.jpg	0	0.0	0	98.37569412484301	98.4256759854034	0.049981860560364993	65988
66.088	50	376	0	0	container	398	67	1	stimuli\container\container_10s.jpg	9	-1	1	0	container_10s.jpg	0	0.0	0	98.4756963679101	98.5256801788928	0.0499838109826669	66088
66.188	50	377	0	0	crank	432	68	1	stimuli\crank\crank_02s.jpg	1	-1	1	0	crank_02s.jpg	0	0.0	0	98.57569641666491	98.625680959085	0.0499845424201339	66188
66.288	50	378	0	0	step_stool	1548	69	1	stimuli\step_stool\step_stool_01b.jpg	0	-1	1	0	step_stool_01b.jpg	0	0.0	0	98.6757001224905	98.7256819831673	0.0499818606767803	66288
66.388	50	379	0	0	drain	515	70	1	stimuli\drain\drain_11s.jpg	10	-1	1	0	drain_11s.jpg	0	0.0	0	98.7757009026827	98.8257249422604	0.0500240395776927	66388
66.488	50	380	0	0	crayon	435	71	1	stimuli\crayon\crayon_12s.jpg	11	-1	1	0	crayon_12s.jpg	0	0.0	0	98.875709484797	98.92568793206009	0.0499784472631291	66488
66.588	50	381	0	0	first-aid_kit	599	72	1	stimuli\first-aid_kit\first-aid_kit_08s.jpg	7	-1	1	0	first-aid_kit_08s.jpg	0	0.0	0	98.97571343451271	99.0256955389632	0.0499821044504642	66588
66.688	50	382	0	0	mouse1	1026	73	1	stimuli\mouse1\mouse1_05s.jpg	4	-1	1	0	mouse1_05s.jpg	0	0.0	0	99.07570494990802	99.12570217053872	0.0499972206307575	66688
66.788	50	383	0	0	wooden_leg	1834	74	1	stimuli\wooden_leg\wooden_leg_09s.jpg	8	-1	1	0	wooden_leg_09s.jpg	0	0.0	0	99.17571792064699	99.2256973431213	0.04997942247428	66788
66.888	50	384	0	0	pliers	1201	75	1	stimuli\pliers\pliers_02s.jpg	1	-1	1	0	pliers_02s.jpg	0	0.0	0	99.2757250397699	99.32570007373579	0.0499750339658931	66888
66.988	50	385	0	0	gear	667	76	1	stimuli\gear\gear_06s.jpg	5	-1	1	0	gear_06s.jpg	0	0.0	0	99.3757209437899	99.4257052425528	0.0499842987628654	66988
67.088	50	386	0	0	dumbwaiter	531	77	1	stimuli\dumbwaiter\dumbwaiter_01s.jpg	0	-1	1	0	dumbwaiter_01s.jpg	0	0.0	0	99.4757236745209	99.5257048036437	0.04998112912289799	67088
67.188	50	387	0	0	paper_plate	1114	78	1	stimuli\paper_plate\paper_plate_04s.jpg	3	-1	1	0	paper_plate_04s.jpg	0	0.0	0	99.5757271365728	99.6257058276096	0.049978691036812996	67188
67.288	50	388	0	0	tinsel	1662	79	1	stimuli\tinsel\tinsel_03s.jpg	2	-1	1	0	tinsel_03s.jpg	0	0.0	0	99.6757325491635	99.7257146534976	0.0499821043340489	67288
67.388	50	389	0	0	snowshoe	1485	80	1	stimuli\snowshoe\snowshoe_11s.jpg	10	-1	1	0	snowshoe_11s.jpg	0	0.0	0	99.77573576744179	99.8257200660883	0.049984298646449994	67388
67.488	50	390	0	0	tugboat	1725	81	1	stimuli\tugboat\tugboat_11s.jpg	10	-1	1	0	tugboat_11s.jpg	0	0.0	0	99.8757370351814	99.92571572633459	0.0499786911532283	67488
67.588	50	391	0	0	gum	724	82	1	stimuli\gum\gum_11s.jpg	10	-1	1	0	gum_11s.jpg	0	0.0	0	99.9757358649513	100.02572308934799	0.0499872243963182	67588
67.688	50	392	0	0	llama	938	83	1	stimuli\llama\llama_12s.jpg	11	-1	1	0	llama_12s.jpg	0	0.0	0	100.07573859556601	100.125722406665	0.0499838110990822	67688
67.788	50	393	0	0	sandpaper	1356	84	1	stimuli\sandpaper\sandpaper_04s.jpg	3	-1	1	0	sandpaper_04s.jpg	0	0.0	0	100.17574303294501	100.225723674521	0.0499806415755302	67788
67.888	50	394	0	0	plant	1194	85	1	stimuli\plant\plant_09s.jpg	8	-1	1	0	plant_09s.jpg	0	0.0	0	100.27574844553601	100.325726161362	0.049977715825661996	67888
67.988	50	395	0	0	nightshirt	1058	86	1	stimuli\nightshirt\nightshirt_11s.jpg	10	-1	1	0	nightshirt_11s.jpg	0	0.0	0	100.37574556854099	100.425728404429	0.0499828358879313	67988
68.088	50	396	0	0	kaleidoscope	861	87	1	stimuli\kaleidoscope\kaleidoscope_07s.jpg	6	-1	1	0	kaleidoscope_07s.jpg	0	0.0	0	100.47575000591999	100.52572967216801	0.0499796662479639	68088
68.188	50	397	0	0	mouse2	1027	88	1	stimuli\mouse2\mouse2_09s.jpg	8	-1	1	0	mouse2_09s.jpg	0	0.0	0	100.57575298030899	100.625735572423	0.0499825921142474	68188
68.288	50	398	0	0	car	267	89	1	stimuli\car\car_10s.jpg	9	-1	1	0	car_10s.jpg	0	0.0	0	100.675757173914	100.725738790701	0.0499816167866811	68288
68.388	50	399	0	0	oven	1089	90	1	stimuli\oven\oven_04s.jpg	3	-1	1	0	oven_04s.jpg	0	0.0	0	100.775757954107	100.825737864245	0.0499799101380631	68388
68.488	50	400	0	0	checkbook	310	91	1	stimuli\checkbook\checkbook_07s.jpg	6	-1	1	0	checkbook_07s.jpg	0	0.0	0	100.87576092849501	100.925738888211	0.0499779597157612	68488
68.588	50	401	0	0	oil	1072	92	1	stimuli\oil\oil_05s.jpg	4	-1	1	0	oil_05s.jpg	0	0.0	0	100.975763902999	101.02574576356	0.049981860560364993	68588
68.688	50	402	0	0	nacho	1045	93	1	stimuli\nacho\nacho_09s.jpg	8	-1	1	0	nacho_09s.jpg	0	0.0	0	101.075762976543	101.125749225728	0.0499862491851673	68688
68.788	50	403	0	0	arrow	38	94	1	stimuli\arrow\arrow_06s.jpg	5	-1	1	0	arrow_06s.jpg	0	0.0	0	101.175776190939	101.22575000591999	0.0499738149810582	68788
68.888	50	404	0	0	latte	901	95	1	stimuli\latte\latte_09s.jpg	8	-1	1	0	latte_09s.jpg	0	0.0	0	101.2757694131	101.32575078611299	0.0499813730129972	68888
68.988	50	405	0	0	coconut	375	96	1	stimuli\coconut\coconut_08s.jpg	7	-1	1	0	coconut_08s.jpg	0	0.0	0	101.375775313238	101.42575376050101	0.0499784472631291	68988
69.088	50	406	0	0	pudding	1246	97	1	stimuli\pudding\pudding_02s.jpg	1	-1	1	0	pudding_02s.jpg	0	0.0	0	101.475780725828	101.52575722266899	0.0499764968408272	69088
69.188	50	407	0	0	toad	1664	98	1	stimuli\toad\toad_07s.jpg	6	-1	1	0	toad_07s.jpg	0	0.0	0	101.57575980701901	101.625738010509	0.0499782034894451	69188
69.288	50	408	0	0	chaps	306	99	1	stimuli\chaps\chaps_01s.jpg	0	-1	1	0	chaps_01s.jpg	0	0.0	0	101.675784968073	101.72576536587401	0.0499803978018463	69288
69.388	50	409	0	0	clay	352	100	1	stimuli\clay\clay_08s.jpg	7	-1	1	0	clay_08s.jpg	0	0.0	0	101.77578526071699	101.825755418395	0.0499701576773077	69388
69.488	50	410	0	0	caviar	289	101	1	stimuli\caviar\caviar_01b.jpg	0	-1	1	0	caviar_01b.jpg	0	0.0	0	101.875787503785	101.92575571104	0.0499682072550058	69488
69.588	50	411	0	0	mantle	969	102	1	stimuli\mantle\mantle_02s.jpg	1	-1	1	0	mantle_02s.jpg	0	0.0	0	101.97579340392299	102.025772338849	0.0499789349269122	69588
69.688	50	412	0	0	water_filter	1789	103	1	stimuli\water_filter\water_filter_05s.jpg	4	-1	1	0	water_filter_05s.jpg	0	0.0	0	102.075792477466	102.125775069464	0.0499825919978321	69688
69.788	50	413	0	0	camera1	246	104	1	stimuli\camera1\camera1_08n.jpg	7	-1	1	1	camera1_08n.jpg	0	0.0	0	102.175797646167	102.225786333438	0.0499886872712523	69788
69.888	50	414	0	0	peg	1139	105	1	stimuli\peg\peg_06s.jpg	5	-1	1	0	peg_06s.jpg	0	0.0	0	102.275800864445	102.325778336497	0.0499774720519781	69888
69.988	50	415	0	0	windsock	1822	106	1	stimuli\windsock\windsock_12s.jpg	11	-1	1	0	windsock_12s.jpg	0	0.0	0	102.375802376075	102.425755954813	0.0499535787384957	69988
70.088	50	416	0	0	slipper	1468	107	1	stimuli\slipper\slipper_03s.jpg	2	-1	1	0	slipper_03s.jpg	0	0.0	0	102.475778531516	102.525752590271	0.0499740587547421	70088
70.188	50	417	0	0	seal	1397	108	1	stimuli\seal\seal_06s.jpg	5	-1	1	0	seal_06s.jpg	0	0.0	0	102.575776386075	102.625757271424	0.0499808853492141	70188
70.288	50	418	0	0	stretcher	1572	109	1	stimuli\stretcher\stretcher_04s.jpg	3	-1	1	0	stretcher_04s.jpg	0	0.0	0	102.67579618329201	102.725788283977	0.0499921006849036	70288
70.388	50	419	0	0	ottoman	1086	110	1	stimuli\ottoman\ottoman_08s.jpg	7	-1	1	0	ottoman_08s.jpg	0	0.0	0	102.775813298766	102.825792477466	0.0499791787005961	70388
70.488	50	420	0	0	pedometer	1137	111	1	stimuli\pedometer\pedometer_04s.jpg	3	-1	1	0	pedometer_04s.jpg	0	0.0	0	102.87581505416901	102.92580374144	0.0499886872712523	70488
70.588	50	421	0	0	squid	1528	112	1	stimuli\squid\squid_02s.jpg	1	-1	1	0	squid_02s.jpg	0	0.0	0	102.97581705346201	103.025799401687	0.0499823482241482	70588
70.688	50	422	0	0	bulletin_board	217	113	1	stimuli\bulletin_board\bulletin_board_07s.jpg	6	-1	1	0	bulletin_board_07s.jpg	0	0.0	0	103.075818808866	103.125799937989	0.04998112912289799	70688
70.788	50	423	0	0	wheat	1805	114	1	stimuli\wheat\wheat_11s.jpg	10	-1	1	0	wheat_11s.jpg	0	0.0	0	103.17582714708999	103.225804862916	0.049977715825661996	70788
70.888	50	424	0	0	bell	116	115	1	stimuli\bell\bell_11s.jpg	10	-1	1	0	bell_11s.jpg	0	0.0	0	103.27582353877399	103.325803692685	0.049980153911747004	70888
70.988	50	425	0	0	wallet	1776	116	1	stimuli\wallet\wallet_12s.jpg	11	-1	1	0	wallet_12s.jpg	0	0.0	0	103.37581505416901	103.425815444323	0.0500003901543096	70988
71.088	50	426	0	0	comic_book	391	117	1	stimuli\comic_book\comic_book_02s.jpg	1	-1	1	0	comic_book_02s.jpg	0	0.0	0	103.475834607729	103.52580793493	0.0499733272008598	71088
71.188	50	427	0	0	eyeliner	567	118	1	stimuli\eyeliner\eyeliner_06s.jpg	5	-1	1	0	eyeliner_06s.jpg	0	0.0	0	103.575830511632	103.62579603702801	0.0499655253952369	71188
71.288	50	428	0	0	bassoon	86	119	1	stimuli\bassoon\bassoon_01b.jpg	0	-1	1	0	bassoon_01b.jpg	0	0.0	0	103.675833242363	103.72580047440701	0.0499672320438549	71288
71.388	50	429	0	0	briefcase	200	120	1	stimuli\briefcase\briefcase_04s.jpg	3	-1	1	0	briefcase_04s.jpg	0	0.0	0	103.77583524154	103.825803205022	0.0499679634813219	71388
71.488	50	430	0	0	wrench	1841	121	1	stimuli\wrench\wrench_07s.jpg	6	-1	1	0	wrench_07s.jpg	0	0.0	0	103.875838703709	103.925821295707	0.0499825919978321	71488
71.588	50	431	0	0	light_switch	926	122	1	stimuli\light_switch\light_switch_12s.jpg	11	-1	1	0	light_switch_12s.jpg	0	0.0	0	103.97584460384701	104.02582573296999	0.04998112912289799	71588
71.688	50	432	0	0	pepper2	1150	123	1	stimuli\pepper2\pepper2_03s.jpg	2	-1	1	0	pepper2_03s.jpg	0	0.0	0	104.07584294595301	104.12582578184099	0.0499828358879313	71688
71.788	50	433	0	0	snack	1475	124	1	stimuli\snack\snack_12s.jpg	11	-1	1	0	snack_12s.jpg	0	0.0	0	104.175847627106	104.22582924389299	0.0499816167866811	71788
71.888	50	434	0	0	birdbath	129	125	1	stimuli\birdbath\birdbath_04s.jpg	3	-1	1	0	birdbath_04s.jpg	0	0.0	0	104.27585328347	104.325814176467	0.0499608929967508	71888
71.988	50	435	0	0	leash	907	126	1	stimuli\leash\leash_06s.jpg	5	-1	1	0	leash_06s.jpg	0	0.0	0	104.37585308845199	104.42583568044901	0.0499825919978321	71988
72.088	50	436	0	0	gazelle	666	127	1	stimuli\gazelle\gazelle_02s.jpg	1	-1	1	0	gazelle_02s.jpg	0	0.0	0	104.475855575292	104.525837435853	0.049981860560364993	72088
72.188	50	437	0	0	punch1	1254	128	1	stimuli\punch1\punch1_10s.jpg	9	-1	1	0	punch1_10s.jpg	0	0.0	0	104.575854648836	104.62582602561501	0.0499713767785579	72188
72.288	50	438	0	0	muffin	1035	129	1	stimuli\muffin\muffin_12n.jpg	11	-1	1	0	muffin_12n.jpg	0	0.0	0	104.675858598552	104.725843628636	0.0499850300839171	72288
72.388	50	439	0	0	prism	1241	130	1	stimuli\prism\prism_05s.jpg	4	-1	1	0	prism_05s.jpg	0	0.0	0	104.77584816352501	104.82584440882799	0.0499962453031912	72388
72.488	50	440	0	0	whoopee_cushion	1814	131	1	stimuli\whoopee_cushion\whoopee_cushion_02s.jpg	1	-1	1	0	whoopee_cushion_02s.jpg	0	0.0	0	104.875849918928	104.92584665189501	0.0499967329669744	72488
72.588	50	441	0	0	stingray	1556	132	1	stimuli\stingray\stingray_06s.jpg	5	-1	1	0	stingray_06s.jpg	0	0.0	0	104.975867278059	105.025833778782	0.0499665007228032	72588
72.688	50	442	0	0	shoelace	1426	133	1	stimuli\shoelace\shoelace_03s.jpg	2	-1	1	0	shoelace_03s.jpg	0	0.0	0	105.075914625893	105.125883076922	0.0499684510286897	72688
72.788	50	443	0	0	shirt	1422	134	1	stimuli\shirt\shirt_10s.jpg	9	-1	1	0	shirt_10s.jpg	0	0.0	0	105.175898095593	105.22585801337799	0.0499599177855998	72788
72.888	50	444	0	0	mushroom	1040	135	1	stimuli\mushroom\mushroom_06n.jpg	5	-1	1	0	mushroom_06n.jpg	0	0.0	0	105.275873763487	105.325857574469	0.0499838109826669	72888
72.988	50	445	0	0	oyster	1092	136	1	stimuli\oyster\oyster_07s.jpg	6	-1	1	0	oyster_07s.jpg	0	0.0	0	105.375879907398	105.425858842325	0.0499789349269122	72988
73.088	50	446	0	0	spider_web	1514	137	1	stimuli\spider_web\spider_web_06s.jpg	5	-1	1	0	spider_web_06s.jpg	0	0.0	0	105.475880687591	105.525863035815	0.0499823482241482	73088
73.188	50	447	0	0	twig	1740	138	1	stimuli\twig\twig_04s.jpg	3	-1	1	0	twig_04s.jpg	0	0.0	0	105.57588146778299	105.62586479121799	0.0499833234352991	73188
73.288	50	448	0	0	train	1698	139	1	stimuli\train\train_07s.jpg	6	-1	1	0	train_07s.jpg	0	0.0	0	105.675890049897	105.725871910457	0.049981860560364993	73288
73.388	50	449	0	0	odometer	1071	140	1	stimuli\odometer\odometer_04s.jpg	3	-1	1	0	odometer_04s.jpg	0	0.0	0	105.775892049074	105.825855867821	0.0499638187466189	73388
73.488	50	450	0	0	trolley	1715	141	1	stimuli\trolley\trolley_01b.jpg	0	-1	1	0	trolley_01b.jpg	0	0.0	0	105.875895023579	105.925878347014	0.0499833234352991	73488
73.588	50	451	0	0	terrarium	1644	142	1	stimuli\terrarium\terrarium_04s.jpg	3	-1	1	0	terrarium_04s.jpg	0	0.0	0	105.97589775431	106.025872300612	0.049974546302110005	73588
73.688	50	452	0	0	cornhusk	414	143	1	stimuli\cornhusk\cornhusk_08s.jpg	7	-1	1	0	cornhusk_08s.jpg	0	0.0	0	106.075892683002	106.125875762664	0.0499830796616152	73688
73.788	50	453	0	0	lens	916	144	1	stimuli\lens\lens_08s.jpg	7	-1	1	0	lens_08s.jpg	0	0.0	0	106.175898095593	106.225878980942	0.0499808853492141	73788
73.888	50	454	0	0	tostada	1688	145	1	stimuli\tostada\tostada_12s.jpg	11	-1	1	0	tostada_12s.jpg	0	0.0	0	106.27589814434799	106.32587927347001	0.04998112912289799	73888
73.988	50	455	0	0	jug	853	146	1	stimuli\jug\jug_11s.jpg	10	-1	1	1	jug_11s.jpg	0	0.0	0	106.37590014364099	106.42588566127199	0.0499855176312849	73988
74.088	50	456	0	0	camper	249	147	1	stimuli\camper\camper_01b.jpg	0	-1	1	0	camper_01b.jpg	0	0.0	0	106.47590433713002	106.525884003378	0.0499796662479639	74088
74.188	50	457	0	0	tent	1643	148	1	stimuli\tent\tent_03s.jpg	2	-1	1	0	tent_03s.jpg	0	0.0	0	106.575890976354	106.62587137415501	0.0499803978018463	74188
74.288	50	458	0	0	lawnmower	905	149	1	stimuli\lawnmower\lawnmower_03s.jpg	2	-1	1	0	lawnmower_03s.jpg	0	0.0	0	106.675908579375	106.725890439935	0.049981860560364993	74288
74.388	50	459	0	0	fudge	647	150	1	stimuli\fudge\fudge_09s.jpg	8	-1	1	0	fudge_09s.jpg	0	0.0	0	106.77591423573901	106.825895852526	0.0499816167866811	74388
74.488	50	460	0	0	yogurt	1848	151	1	stimuli\yogurt\yogurt_07s.jpg	6	-1	1	0	yogurt_07s.jpg	0	0.0	0	106.87591550359501	106.925902971765	0.0499874681700021	74488
74.588	50	461	0	0	scalpel	1374	152	1	stimuli\scalpel\scalpel_07s.jpg	6	-1	1	0	scalpel_07s.jpg	0	0.0	0	106.975920184748	107.025882052956	0.0499618682079017	74588
74.688	50	462	0	0	slot_machine	1470	153	1	stimuli\slot_machine\slot_machine_07s.jpg	6	-1	1	0	slot_machine_07s.jpg	0	0.0	0	107.075918526854	107.125885027461	0.0499665006063879	74688
74.788	50	463	0	0	knee	877	154	1	stimuli\knee\knee_06s.jpg	5	-1	1	0	knee_06s.jpg	0	0.0	0	107.175924183219	107.22590336191901	0.0499791787005961	74788
74.888	50	464	0	0	vial	1760	155	1	stimuli\vial\vial_06s.jpg	5	-1	1	0	vial_06s.jpg	0	0.0	0	107.275923988083	107.32590462965901	0.0499806415755302	74888
74.988	50	465	0	0	smoke_alarm	1473	156	1	stimuli\smoke_alarm\smoke_alarm_10s.jpg	9	-1	1	0	smoke_alarm_10s.jpg	0	0.0	0	107.375930863549	107.425912480336	0.0499816167866811	74988
75.088	50	466	0	0	scale	1371	157	1	stimuli\scale\scale_07s.jpg	6	-1	1	0	scale_07s.jpg	0	0.0	0	107.475936519913	107.52591496717699	0.0499784472631291	75088
75.188	50	467	0	0	flute	620	158	1	stimuli\flute\flute_09s.jpg	8	-1	1	0	flute_09s.jpg	0	0.0	0	107.57591706397899	107.625912577845	0.0499955138657242	75188
75.288	50	468	0	0	can	250	159	1	stimuli\can\can_10s.jpg	9	-1	1	0	can_10s.jpg	0	0.0	0	107.675934179337	107.725923110382	0.0499889310449362	75288
75.388	50	469	0	0	cherry	316	160	1	stimuli\cherry\cherry_07n.jpg	6	-1	1	0	cherry_07n.jpg	0	0.0	0	107.77594178624001	107.82592315913601	0.0499813728965819	75388
75.488	50	470	0	0	spring_roll	1521	161	1	stimuli\spring_roll\spring_roll_12s.jpg	11	-1	1	0	spring_roll_12s.jpg	0	0.0	0	107.87592818168899	107.92593076604	0.0500025843502954	75488
75.588	50	471	0	0	spoon	1519	162	1	stimuli\spoon\spoon_10s.jpg	9	-1	1	0	spoon_10s.jpg	0	0.0	0	107.975947003695	108.02592374430999	0.0499767406145111	75588
75.688	50	472	0	0	handlebar	749	163	1	stimuli\handlebar\handlebar_05s.jpg	4	-1	1	0	handlebar_05s.jpg	0	0.0	0	108.075946808676	108.125912821619	0.0499660129426047	75688
75.788	50	473	0	0	cello	292	164	1	stimuli\cello\cello_01s.jpg	0	-1	1	0	cello_01s.jpg	0	0.0	0	108.17595075839199	108.22592896188101	0.0499782034894451	75788
75.888	50	474	0	0	dress	518	165	1	stimuli\dress\dress_12s.jpg	11	-1	1	0	dress_12s.jpg	0	0.0	0	108.275948612834	108.32593291159701	0.0499842987628654	75888
75.989	50	475	0	0	cashew	281	166	1	stimuli\cashew\cashew_01b.jpg	0	-1	1	0	cashew_01b.jpg	0	0.0	0	108.375975724426	108.425936129875	0.049960405449382995	75989
76.088	50	476	0	0	magnifier	957	167	1	stimuli\magnifier\magnifier_12s.jpg	11	-1	1	0	magnifier_12s.jpg	0	0.0	0	108.47593968943701	108.52593544719299	0.0499957577558234	76088
76.188	50	477	0	0	crucifix	449	168	1	stimuli\crucifix\crucifix_11s.jpg	10	-1	1	0	crucifix_11s.jpg	0	0.0	0	108.575958023896	108.625938909245	0.0499808853492141	76188
76.288	50	478	0	0	yak	1845	169	1	stimuli\yak\yak_12s.jpg	11	-1	1	0	yak_12s.jpg	0	0.0	0	108.675961242174	108.725940664648	0.04997942247428	76288
76.388	50	479	0	0	tennis_ball	1642	170	1	stimuli\tennis_ball\tennis_ball_11s.jpg	10	-1	1	0	tennis_ball_11s.jpg	0	0.0	0	108.77596251003	108.82593193627	0.0499694262398407	76388
76.488	50	480	0	0	metronome	997	171	1	stimuli\metronome\metronome_09s.jpg	8	-1	1	0	metronome_09s.jpg	0	0.0	0	108.87596938537901	108.925931985024	0.0499625996453688	76488
76.588	50	481	0	0	chip	333	172	1	stimuli\chip\chip_07n.jpg	6	-1	1	0	chip_07n.jpg	0	0.0	0	108.975957487477	109.025934715755	0.0499772282782942	76588
76.688	50	482	0	0	sawhorse	1367	173	1	stimuli\sawhorse\sawhorse_05s.jpg	4	-1	1	0	sawhorse_05s.jpg	0	0.0	0	109.075956804794	109.125957682612	0.0500008778180927	76688
76.789	50	483	0	0	cufflink	458	174	1	stimuli\cufflink\cufflink_02s.jpg	1	-1	1	0	cufflink_02s.jpg	0	0.0	0	109.175968068885	109.225946759921	0.049978691036812996	76789
76.889	50	484	0	0	suspenders	1589	175	1	stimuli\suspenders\suspenders_02s.jpg	1	-1	1	0	suspenders_02s.jpg	0	0.0	0	109.275967142312	109.325948759099	0.0499816167866811	76889
76.989	50	485	0	0	knot	883	176	1	stimuli\knot\knot_07s.jpg	6	-1	1	1	knot_07s.jpg	0	0.0	0	109.375967922504	109.425951489829	0.0499835673253983	76989
77.089	50	486	0	0	thumbtack	1654	177	1	stimuli\thumbtack\thumbtack_05s.jpg	4	-1	1	0	thumbtack_05s.jpg	0	0.0	0	109.475970653235	109.525955683319	0.0499850300839171	77089
77.189	50	487	0	0	incubator	827	178	1	stimuli\incubator\incubator_02s.jpg	1	-1	1	0	incubator_02s.jpg	0	0.0	0	109.575978747685	109.625957926386	0.0499791787005961	77189
77.289	50	488	0	0	gopher	694	179	1	stimuli\gopher\gopher_05s.jpg	4	-1	1	0	gopher_05s.jpg	0	0.0	0	109.67598562315099	109.725969921798	0.049984298646449994	77289
77.389	50	489	0	0	kangaroo	862	180	1	stimuli\kangaroo\kangaroo_06n.jpg	5	-1	1	0	kangaroo_06n.jpg	0	0.0	0	109.775983965141	109.825965825818	0.0499818606767803	77389
77.489	50	490	0	0	cookie	400	181	1	stimuli\cookie\cookie_12s.jpg	11	-1	1	0	cookie_12s.jpg	0	0.0	0	109.875986939645	109.925971482182	0.0499845425365493	77489
77.589	50	491	0	0	gyro	730	182	1	stimuli\gyro\gyro_09s.jpg	8	-1	1	0	gyro_09s.jpg	0	0.0	0	109.975989426486	110.02596982428801	0.0499803978018463	77589
77.689	50	492	0	0	ticktacktoe	1657	183	1	stimuli\ticktacktoe\ticktacktoe_11s.jpg	10	-1	1	0	ticktacktoe_11s.jpg	0	0.0	0	110.07598606194401	110.125968166394	0.0499821044504642	77689
77.789	50	493	0	0	bracelet2	188	184	1	stimuli\bracelet2\bracelet2_01b.jpg	0	-1	1	0	bracelet2_01b.jpg	0	0.0	0	110.175990743097	110.225972847547	0.0499821044504642	77789
77.889	50	494	0	0	scoop	1381	185	1	stimuli\scoop\scoop_05s.jpg	4	-1	1	0	scoop_05s.jpg	0	0.0	0	110.275990791852	110.325974115287	0.0499833234352991	77889
77.989	50	495	0	0	artichoke	39	186	1	stimuli\artichoke\artichoke_04s.jpg	3	-1	1	0	artichoke_04s.jpg	0	0.0	0	110.37599401013	110.42598391638599	0.0499899062560871	77989
78.089	50	496	0	0	gong	692	187	1	stimuli\gong\gong_11s.jpg	10	-1	1	0	gong_11s.jpg	0	0.0	0	110.47599893505699	110.525979088969	0.049980153911747004	78089
78.189	50	497	0	0	pearl	1134	188	1	stimuli\pearl\pearl_11s.jpg	10	-1	1	0	pearl_11s.jpg	0	0.0	0	110.57599800860001	110.62598181969999	0.0499838110990822	78189
78.289	50	498	0	0	lobster	939	189	1	stimuli\lobster\lobster_09s.jpg	8	-1	1	0	lobster_09s.jpg	0	0.0	0	110.67600195831601	110.725982599892	0.0499806415755302	78289
78.389	50	499	0	0	tea	1631	190	1	stimuli\tea\tea_08s.jpg	7	-1	1	0	tea_08s.jpg	0	0.0	0	110.776008102344	110.825985330506	0.0499772281618789	78389
78.489	50	500	0	0	armor	37	191	1	stimuli\armor\armor_07s.jpg	6	-1	1	0	armor_07s.jpg	0	0.0	0	110.87600888253701	110.925992937409	0.0499840548727661	78489
78.589	50	501	0	0	home_plate	787	192	1	stimuli\home_plate\home_plate_11s.jpg	10	-1	1	0	home_plate_11s.jpg	0	0.0	0	110.976008687401	111.02598932897699	0.0499806415755302	78589
78.689	50	502	0	0	glasses	678	193	1	stimuli\glasses\glasses_01b.jpg	0	-1	1	0	glasses_01b.jpg	0	0.0	0	111.076013368554	111.12599352246599	0.049980153911747004	78689
78.789	50	503	0	0	nightstand	1059	194	1	stimuli\nightstand\nightstand_04s.jpg	3	-1	1	0	nightstand_04s.jpg	0	0.0	0	111.176019268809	111.225997716072	0.0499784472631291	78789
78.889	50	504	0	0	railing	1277	195	1	stimuli\railing\railing_05s.jpg	4	-1	1	0	railing_05s.jpg	0	0.0	0	111.276018098462	111.32599874003799	0.0499806415755302	78889
78.989	50	505	0	0	flag	605	196	1	stimuli\flag\flag_11s.jpg	10	-1	1	0	flag_11s.jpg	0	0.0	0	111.37601936631799	111.42600464017599	0.049985273857600994	78989
79.089	50	506	0	0	nail_polish	1049	197	1	stimuli\nail_polish\nail_polish_08s.jpg	7	-1	1	0	nail_polish_08s.jpg	0	0.0	0	111.476025997894	111.525984452805	0.0499584549106658	79089
79.189	50	507	0	0	birdhouse	131	198	1	stimuli\birdhouse\birdhouse_12s.jpg	11	-1	1	0	birdhouse_12s.jpg	0	0.0	0	111.576018976164	111.626016684342	0.0499977081781253	79189
79.289	50	508	0	0	button2	231	199	1	stimuli\button2\button2_11s.jpg	10	-1	1	0	button2_11s.jpg	0	0.0	0	111.67604096781	111.726024291245	0.0499833234352991	79289
79.389	50	509	0	0	cymbal	468	200	1	stimuli\cymbal\cymbal_02s.jpg	1	-1	1	0	cymbal_02s.jpg	0	0.0	0	111.776024193736	111.82602141425	0.0499972205143422	79389
79.489	50	510	0	0	bull	214	201	1	stimuli\bull\bull_05s.jpg	4	-1	1	0	bull_05s.jpg	0	0.0	0	111.876041065319	111.92601049167601	0.049969426356256	79489
79.589	50	511	0	0	boulder	172	202	1	stimuli\boulder\boulder_07s.jpg	6	-1	1	0	boulder_07s.jpg	0	0.0	0	111.976024047472	112.026000300422	0.0499762529507279	79589
79.689	50	512	0	0	easter_egg	543	203	1	stimuli\easter_egg\easter_egg_02s.jpg	1	-1	1	0	easter_egg_02s.jpg	0	0.0	0	112.076020439039	112.125994741567	0.0499743025284261	79689
79.789	50	513	0	0	enchilada	556	204	1	stimuli\enchilada\enchilada_05s.jpg	4	-1	1	0	enchilada_05s.jpg	0	0.0	0	112.176053402014	112.226030142629	0.0499767406145111	79789
79.889	50	514	0	0	basil	81	205	1	stimuli\basil\basil_03s.jpg	2	-1	1	0	basil_03s.jpg	0	0.0	0	112.27605174411998	112.326032629469	0.0499808853492141	79889
79.989	50	515	0	0	cobra	371	206	1	stimuli\cobra\cobra_09s.jpg	8	-1	1	0	cobra_09s.jpg	0	0.0	0	112.376042284304	112.426034628763	0.0499923444585875	79989
80.089	50	516	0	0	electric_chair	553	207	1	stimuli\electric_chair\electric_chair_06s.jpg	5	-1	1	0	electric_chair_06s.jpg	0	0.0	0	112.476056230254	112.52603662793999	0.0499803976854309	80089
80.189	50	517	0	0	cap	265	208	1	stimuli\cap\cap_01b.jpg	0	-1	1	0	cap_01b.jpg	0	0.0	0	112.57605676667299	112.626043747179	0.049986980506219	80189
80.289	50	518	0	0	kazoo	864	209	1	stimuli\kazoo\kazoo_08s.jpg	7	-1	1	0	kazoo_08s.jpg	0	0.0	0	112.67606096016199	112.72604647791	0.0499855177477002	80289
80.389	50	519	0	0	duffel_bag	529	210	1	stimuli\duffel_bag\duffel_bag_03s.jpg	2	-1	1	0	duffel_bag_03s.jpg	0	0.0	0	112.77606320323	112.82604603900101	0.049982835771516	80389
80.489	50	520	0	0	insole	831	211	1	stimuli\insole\insole_05s.jpg	4	-1	1	0	insole_05s.jpg	0	0.0	0	112.876067152945	112.92604925727899	0.0499821043340489	80489
80.589	50	521	0	0	chandelier	305	212	1	stimuli\chandelier\chandelier_09s.jpg	8	-1	1	0	chandelier_09s.jpg	0	0.0	0	112.97606915212201	113.026048574597	0.04997942247428	80589
80.689	50	522	0	0	tank2	1621	213	1	stimuli\tank2\tank2_06s.jpg	5	-1	1	0	tank2_06s.jpg	0	0.0	0	113.076069688541	113.12603984621799	0.0499701576773077	80689
80.789	50	523	0	0	necklace	1054	214	1	stimuli\necklace\necklace_03s.jpg	2	-1	1	0	necklace_03s.jpg	0	0.0	0	113.17607656388999	113.226058180677	0.0499816167866811	80789
80.889	50	524	0	0	pie	1168	215	1	stimuli\pie\pie_05s.jpg	4	-1	1	0	pie_05s.jpg	0	0.0	0	113.27607783174601	113.326059692306	0.049981860560364993	80889
80.989	50	525	0	0	mold1	1012	216	1	stimuli\mold1\mold1_06s.jpg	5	-1	1	0	mold1_06s.jpg	0	0.0	0	113.376069834805	113.426061203936	0.0499913691310212	80989
81.089	50	526	0	0	gel	669	217	1	stimuli\gel\gel_07s.jpg	6	-1	1	0	gel_07s.jpg	0	0.0	0	113.476082561654	113.526046136511	0.0499635748565197	81089
81.189	50	527	0	0	boxing_gloves	183	218	1	stimuli\boxing_gloves\boxing_gloves_08s.jpg	7	-1	1	0	boxing_gloves_08s.jpg	0	0.0	0	113.57608309795602	113.626063739532	0.0499806415755302	81189
81.289	50	528	0	0	fan	571	219	1	stimuli\fan\fan_06s.jpg	5	-1	1	0	fan_06s.jpg	0	0.0	0	113.676090461086	113.726070614997	0.049980153911747004	81289
81.389	50	529	0	0	bell_pepper	117	220	1	stimuli\bell_pepper\bell_pepper_04s.jpg	3	-1	1	1	bell_pepper_04s.jpg	0	0.0	0	113.776084170793	113.826074564713	0.0499903939198703	81389
81.489	50	530	0	0	siren	1448	221	1	stimuli\siren\siren_12s.jpg	11	-1	1	0	siren_12s.jpg	0	0.0	0	113.876099335728	113.926083146827	0.0499838110990822	81489
81.589	50	531	0	0	keyhole	871	222	1	stimuli\keyhole\keyhole_06s.jpg	5	-1	1	0	keyhole_06s.jpg	0	0.0	0	113.976103285444	114.026059302269	0.0499560168245807	81589
81.689	50	532	0	0	thermometer	1646	223	1	stimuli\thermometer\thermometer_07s.jpg	6	-1	1	0	thermometer_07s.jpg	0	0.0	0	114.076096995152	114.12608348811001	0.0499864929588512	81689
81.789	50	533	0	0	eggplant	550	224	1	stimuli\eggplant\eggplant_04s.jpg	3	-1	1	0	eggplant_04s.jpg	0	0.0	0	114.176101188641	114.226079635904	0.0499784472631291	81789
81.889	50	534	0	0	aquarium	34	225	1	stimuli\aquarium\aquarium_09s.jpg	8	-1	1	0	aquarium_09s.jpg	0	0.0	0	114.27610172506	114.32606627512699	0.0499645500676706	81889
81.989	50	535	0	0	tack	1611	226	1	stimuli\tack\tack_06s.jpg	5	-1	1	0	tack_06s.jpg	0	0.0	0	114.376090802369	114.426087047672	0.0499962453031912	81989
82.089	50	536	0	0	box	181	227	1	stimuli\box\box_08s.jpg	7	-1	1	0	box_08s.jpg	0	0.0	0	114.47611474443701	114.52607222413602	0.0499574796995148	82089
82.189	50	537	0	0	dumpster	533	228	1	stimuli\dumpster\dumpster_08s.jpg	7	-1	1	0	dumpster_08s.jpg	0	0.0	0	114.57610991701901	114.62608397577401	0.0499740587547421	82189
82.289	50	538	0	0	bottle_opener	171	229	1	stimuli\bottle_opener\bottle_opener_01b.jpg	0	-1	1	0	bottle_opener_01b.jpg	0	0.0	0	114.67611362296199	114.72609475208401	0.04998112912289799	82289
82.389	50	539	0	0	puck	1245	230	1	stimuli\puck\puck_09s.jpg	8	-1	1	0	puck_09s.jpg	0	0.0	0	114.776114159264	114.826080172323	0.049966013059019994	82389
82.489	50	540	0	0	crystal_ball	455	231	1	stimuli\crystal_ball\crystal_ball_09s.jpg	8	-1	1	0	crystal_ball_09s.jpg	0	0.0	0	114.87612127850299	114.92609753157	0.0499762530671433	82489
82.589	50	541	0	0	blanket	136	232	1	stimuli\blanket\blanket_08s.jpg	7	-1	1	0	blanket_08s.jpg	0	0.0	0	114.976118889172	115.026099286973	0.0499803978018463	82589
82.689	50	542	0	0	earwig	541	233	1	stimuli\earwig\earwig_02s.jpg	1	-1	1	0	earwig_02s.jpg	0	0.0	0	115.07612210745	115.12611250136999	0.0499903939198703	82689
82.789	50	543	0	0	tuba	1723	234	1	stimuli\tuba\tuba_04s.jpg	3	-1	1	0	tuba_04s.jpg	0	0.0	0	115.176126544829	115.226108161616	0.0499816167866811	82789
82.889	50	544	0	0	lightning_bug	929	235	1	stimuli\lightning_bug\lightning_bug_10s.jpg	9	-1	1	0	lightning_bug_10s.jpg	0	0.0	0	115.27612683735799	115.326108941808	0.0499821044504642	82889
82.989	50	545	0	0	anklet	23	236	1	stimuli\anklet\anklet_02s.jpg	1	-1	1	0	anklet_02s.jpg	0	0.0	0	115.376128348988	115.426116548595	0.0499881996074691	82989
83.089	50	546	0	0	sausage	1365	237	1	stimuli\sausage\sausage_05s.jpg	4	-1	1	0	sausage_05s.jpg	0	0.0	0	115.47613376157801	115.526101968833	0.0499682072550058	83089
83.189	50	547	0	0	peanut_butter	1132	238	1	stimuli\peanut_butter\peanut_butter_10s.jpg	9	-1	1	0	peanut_butter_10s.jpg	0	0.0	0	115.57613697985701	115.626116889995	0.0499799101380631	83189
83.289	50	548	0	0	juicer1	855	239	1	stimuli\juicer1\juicer1_01s.jpg	0	-1	1	0	juicer1_01s.jpg	0	0.0	0	115.676138491486	115.726119133062	0.0499806415755302	83289
83.389	50	549	0	0	eggbeater	548	240	1	stimuli\eggbeater\eggbeater_08s.jpg	7	-1	1	0	eggbeater_08s.jpg	0	0.0	0	115.776139515452	115.826105284621	0.0499657691689208	83389
83.489	50	550	0	0	radio	1273	241	1	stimuli\radio\radio_03s.jpg	2	-1	1	0	radio_03s.jpg	0	0.0	0	115.876142977504	115.926126788603	0.0499838110990822	83489
83.589	50	551	0	0	train_set	1700	242	1	stimuli\train_set\train_set_09s.jpg	8	-1	1	0	train_set_09s.jpg	0	0.0	0	115.976132298703	116.02612927544399	0.0499969767406583	83589
83.689	50	552	0	0	bat2	88	243	1	stimuli\bat2\bat2_07s.jpg	6	-1	1	0	bat2_07s.jpg	0	0.0	0	116.07614795130199	116.12611250136999	0.0499645500676706	83689
83.789	50	553	0	0	orange_rind	1079	244	1	stimuli\orange_rind\orange_rind_08s.jpg	7	-1	1	0	orange_rind_08s.jpg	0	0.0	0	116.17615043814301	116.22613424912599	0.0499838109826669	83789
83.889	50	554	0	0	dirt_bike	488	245	1	stimuli\dirt_bike\dirt_bike_07s.jpg	6	-1	1	0	dirt_bike_07s.jpg	0	0.0	0	116.276156338281	116.326133566559	0.0499772282782942	83889
83.989	50	555	0	0	burner	224	246	1	stimuli\burner\burner_09s.jpg	8	-1	1	0	burner_09s.jpg	0	0.0	0	116.376155899488	116.4261360534	0.049980153911747004	83989
84.089	50	556	0	0	trigger	1713	247	1	stimuli\trigger\trigger_12s.jpg	11	-1	1	0	trigger_12s.jpg	0	0.0	0	116.476158142439	116.52613561449101	0.0499774720519781	84089
84.189	50	557	0	0	dynamite	536	248	1	stimuli\dynamite\dynamite_10s.jpg	9	-1	1	0	dynamite_10s.jpg	0	0.0	0	116.576158678858	116.626142246067	0.049983567208983004	84189
84.289	50	558	0	0	beanbag	103	249	1	stimuli\beanbag\beanbag_05s.jpg	4	-1	1	0	beanbag_05s.jpg	0	0.0	0	116.676162628573	116.726143270149	0.0499806415755302	84289
84.389	50	559	0	0	weed	1802	250	1	stimuli\weed\weed_06s.jpg	5	-1	1	0	weed_06s.jpg	0	0.0	0	116.77616462774999	116.826145513216	0.0499808854656294	84389
84.489	50	560	0	0	cornbread	413	251	1	stimuli\cornbread\cornbread_11s.jpg	10	-1	1	0	cornbread_11s.jpg	0	0.0	0	116.876171259442	116.92613239621299	0.0499611367704347	84489
84.589	50	561	0	0	swing_set	1599	252	1	stimuli\swing_set\swing_set_04s.jpg	3	-1	1	0	swing_set_04s.jpg	0	0.0	0	116.97617057676001	117.026150730671	0.049980153911747004	84589
84.689	50	562	0	0	rattle	1287	253	1	stimuli\rattle\rattle_11s.jpg	10	-1	1	0	rattle_11s.jpg	0	0.0	0	117.07617281982701	117.126156630809	0.0499838109826669	84689
84.789	50	563	0	0	foam	624	254	1	stimuli\foam\foam_12s.jpg	11	-1	1	0	foam_12s.jpg	0	0.0	0	117.176173356129	117.226158142439	0.0499847863102332	84789
84.889	50	564	0	0	outfit	1087	255	1	stimuli\outfit\outfit_12s.jpg	11	-1	1	0	outfit_12s.jpg	0	0.0	0	117.276175355422	117.326158435084	0.0499830796616152	84889
84.989	50	565	0	0	water_cooler	1788	256	1	stimuli\water_cooler\water_cooler_01b.jpg	0	-1	1	0	water_cooler_01b.jpg	0	0.0	0	117.376180280349	117.42615165712799	0.0499713767785579	84989
85.089	50	566	0	0	whistle	1812	257	1	stimuli\whistle\whistle_11s.jpg	10	-1	1	0	whistle_11s.jpg	0	0.0	0	117.47617715958	117.526157069718	0.0499799101380631	85089
85.189	50	567	0	0	trophy	1717	258	1	stimuli\trophy\trophy_02s.jpg	1	-1	1	0	trophy_02s.jpg	0	0.0	0	117.576179158874	117.626159312786	0.049980153911747004	85189
85.289	50	568	0	0	motherboard	1024	259	1	stimuli\motherboard\motherboard_03s.jpg	2	-1	1	1	motherboard_03s.jpg	0	0.0	0	117.676180670504	117.72615936154	0.049978691036812996	85289
85.389	50	569	0	0	cloud	364	260	1	stimuli\cloud\cloud_04s.jpg	3	-1	1	0	cloud_04s.jpg	0	0.0	0	117.776188033517	117.82616599311599	0.0499779595993459	85389
85.489	50	570	0	0	elephant	554	261	1	stimuli\elephant\elephant_10n.jpg	9	-1	1	0	elephant_10n.jpg	0	0.0	0	117.876189301256	117.926180914277	0.0499916130211204	85489
85.589	50	571	0	0	trident	1712	262	1	stimuli\trident\trident_09s.jpg	8	-1	1	0	trident_09s.jpg	0	0.0	0	117.976196176722	118.02617413632099	0.0499779595993459	85589
85.689	50	572	0	0	sandbag	1353	263	1	stimuli\sandbag\sandbag_01b.jpg	0	-1	1	0	sandbag_01b.jpg	0	0.0	0	118.076199395	118.12617637938801	0.049976984388195	85689
85.789	50	573	0	0	doorstop	512	264	1	stimuli\doorstop\doorstop_02s.jpg	1	-1	1	0	doorstop_02s.jpg	0	0.0	0	118.176199687528	118.22617813479201	0.0499784472631291	85789
85.889	50	574	0	0	barnacle	75	265	1	stimuli\barnacle\barnacle_07s.jpg	6	-1	1	0	barnacle_07s.jpg	0	0.0	0	118.27620607533001	118.326178914984	0.049972839653492	85889
85.989	50	575	0	0	apple_tree	31	266	1	stimuli\apple_tree\apple_tree_11s.jpg	10	-1	1	0	apple_tree_11s.jpg	0	0.0	0	118.376201491803	118.426184327574	0.049982835771516	85989
86.089	50	576	0	0	rake	1281	267	1	stimuli\rake\rake_01b.jpg	0	-1	1	0	rake_01b.jpg	0	0.0	0	118.476204953855	118.526208269643	0.0500033157877624	86089
86.189	50	577	0	0	sheet	1415	268	1	stimuli\sheet\sheet_09s.jpg	8	-1	1	0	sheet_09s.jpg	0	0.0	0	118.57620500261001	118.626189057482	0.0499840548727661	86189
86.289	50	578	0	0	woman	1832	269	1	stimuli\woman\woman_04s.jpg	3	-1	1	0	woman_04s.jpg	0	0.0	0	118.67621480370899	118.72618861868999	0.0499738149810582	86289
86.389	50	579	0	0	column	388	270	1	stimuli\column\column_04s.jpg	3	-1	1	0	column_04s.jpg	0	0.0	0	118.77621314581499	118.82619086164	0.049977715825661996	86389
86.489	50	580	0	0	neck	1053	271	1	stimuli\neck\neck_11s.jpg	10	-1	1	0	neck_11s.jpg	0	0.0	0	118.87622002128	118.926199199981	0.0499791787005961	86489
86.589	50	581	0	0	marble	972	272	1	stimuli\marble\marble_08s.jpg	7	-1	1	0	marble_08s.jpg	0	0.0	0	118.97622153291	119.02619705442301	0.0499755215132609	86589
86.689	50	582	0	0	domino	503	273	1	stimuli\domino\domino_03s.jpg	2	-1	1	0	domino_03s.jpg	0	0.0	0	119.076218168251	119.12620295456101	0.0499847863102332	86689
86.789	50	583	0	0	star_fruit	1540	274	1	stimuli\star_fruit\star_fruit_06s.jpg	5	-1	1	0	star_fruit_06s.jpg	0	0.0	0	119.17622479994301	119.226203003433	0.0499782034894451	86789
86.889	50	584	0	0	walker1	1773	275	1	stimuli\walker1\walker1_09s.jpg	8	-1	1	0	walker1_09s.jpg	0	0.0	0	119.276223142049	119.326205977821	0.049982835771516	86889
86.989	50	585	0	0	lab_coat	885	276	1	stimuli\lab_coat\lab_coat_03s.jpg	2	-1	1	0	lab_coat_03s.jpg	0	0.0	0	119.37622831075001	119.426210658974	0.0499823482241482	86989
87.089	50	586	0	0	visor	1766	277	1	stimuli\visor\visor_07s.jpg	6	-1	1	0	visor_07s.jpg	0	0.0	0	119.476233235677	119.526214121026	0.0499808853492141	87089
87.189	50	587	0	0	parachute	1118	278	1	stimuli\parachute\parachute_06s.jpg	5	-1	1	0	parachute_06s.jpg	0	0.0	0	119.576233040658	119.626215876546	0.0499828358879313	87189
87.289	50	588	0	0	hotdog	805	279	1	stimuli\hotdog\hotdog_06s.jpg	5	-1	1	0	hotdog_06s.jpg	0	0.0	0	119.67623967223301	119.726214706199	0.0499750339658931	87289
87.389	50	589	0	0	mulberry	1037	280	1	stimuli\mulberry\mulberry_08s.jpg	7	-1	1	0	mulberry_08s.jpg	0	0.0	0	119.776242159191	119.82622060645399	0.0499784472631291	87389
87.489	50	590	0	0	football_helmet	630	281	1	stimuli\football_helmet\football_helmet_05s.jpg	4	-1	1	0	football_helmet_05s.jpg	0	0.0	0	119.876244646031	119.926219679881	0.0499750338494778	87489
87.589	50	591	0	0	crepe	440	282	1	stimuli\crepe\crepe_02s.jpg	1	-1	1	0	crepe_02s.jpg	0	0.0	0	119.976240306161	120.026223142049	0.0499828358879313	87589
87.689	50	592	0	0	daisy	470	283	1	stimuli\daisy\daisy_11s.jpg	10	-1	1	0	daisy_11s.jpg	0	0.0	0	120.076243036892	120.126224653679	0.0499816167866811	87689
87.789	50	593	0	0	sweeper	1594	284	1	stimuli\sweeper\sweeper_12s.jpg	11	-1	1	0	sweeper_12s.jpg	0	0.0	0	120.17624869325701	120.226228847168	0.049980153911747004	87789
87.889	50	594	0	0	coral	406	285	1	stimuli\coral\coral_03s.jpg	2	-1	1	0	coral_03s.jpg	0	0.0	0	120.276252155309	120.32622987113399	0.049977715825661996	87889
87.989	50	595	0	0	caterpillar	286	286	1	stimuli\caterpillar\caterpillar_06s.jpg	5	-1	1	0	caterpillar_06s.jpg	0	0.0	0	120.376257811673	120.426236990374	0.0499791787005961	87989
88.089	50	596	0	0	inhaler	828	287	1	stimuli\inhaler\inhaler_12s.jpg	11	-1	1	0	inhaler_12s.jpg	0	0.0	0	120.47625420335699	120.526235088706	0.0499808853492141	88089
88.189	50	597	0	0	tablecloth	1609	288	1	stimuli\tablecloth\tablecloth_01b.jpg	0	-1	1	0	tablecloth_01b.jpg	0	0.0	0	120.57625620253401	120.626262931619	0.0500067290849984	88189
88.289	50	598	0	0	bee	111	289	1	stimuli\bee\bee_10s.jpg	9	-1	1	0	bee_10s.jpg	0	0.0	0	120.676263565547	120.726246157661	0.0499825921142474	88289
88.389	50	599	0	0	router	1336	290	1	stimuli\router\router_08s.jpg	7	-1	1	0	router_08s.jpg	0	0.0	0	120.776261420106	120.826243036892	0.0499816167866811	88389
88.489	50	600	0	0	snowmobile	1483	291	1	stimuli\snowmobile\snowmobile_08s.jpg	7	-1	1	0	snowmobile_08s.jpg	0	0.0	0	120.876264882158	120.92624893703001	0.0499840548727661	88489
88.589	50	601	0	0	undershirt	1744	292	1	stimuli\undershirt\undershirt_10s.jpg	9	-1	1	0	undershirt_10s.jpg	0	0.0	0	120.976269075647	121.02624825434799	0.0499791787005961	88589
88.689	50	602	0	0	drumstick	523	293	1	stimuli\drumstick\drumstick_04s.jpg	3	-1	1	0	drumstick_04s.jpg	0	0.0	0	121.076270099613	121.126254642149	0.0499845425365493	88689
88.789	50	603	0	0	knob	882	294	1	stimuli\knob\knob_05s.jpg	4	-1	1	0	knob_05s.jpg	0	0.0	0	121.17627112369499	121.22625444713002	0.0499833234352991	88789
88.889	50	604	0	0	chipmunk	334	295	1	stimuli\chipmunk\chipmunk_06s.jpg	5	-1	1	0	chipmunk_06s.jpg	0	0.0	0	121.276277755271	121.32625693397101	0.0499791787005961	88889
88.989	50	605	0	0	beer	113	296	1	stimuli\beer\beer_03s.jpg	2	-1	1	0	beer_03s.jpg	0	0.0	0	121.376283167861	121.42626039602301	0.0499772281618789	88989
89.089	50	606	0	0	spam	1504	297	1	stimuli\spam\spam_12s.jpg	11	-1	1	0	spam_12s.jpg	0	0.0	0	121.47628102230401	121.526267515263	0.0499864929588512	89089
89.189	50	607	0	0	hip	780	298	1	stimuli\hip\hip_05s.jpg	4	-1	1	0	hip_05s.jpg	0	0.0	0	121.57628424058201	121.626266588806	0.0499823482241482	89189
89.289	50	608	0	0	mug	1036	299	1	stimuli\mug\mug_08s.jpg	7	-1	1	0	mug_08s.jpg	0	0.0	0	121.67629087215799	121.72626517468599	0.0499743025284261	89289
89.389	50	609	0	0	toast	1665	300	1	stimuli\toast\toast_07s.jpg	6	-1	1	0	toast_07s.jpg	0	0.0	0	121.776285069529	121.826267905417	0.0499828358879313	89389
89.489	50	610	0	0	porcupine	1226	301	1	stimuli\porcupine\porcupine_02s.jpg	1	-1	1	0	porcupine_02s.jpg	0	0.0	0	121.87631388776899	121.92627795029	0.0499640625203028	89489
89.589	50	611	0	0	dogfood	496	302	1	stimuli\dogfood\dogfood_11s.jpg	10	-1	1	0	dogfood_11s.jpg	0	0.0	0	121.976295163273	122.026276048622	0.0499808853492141	89589
89.689	50	612	0	0	fish	600	303	1	stimuli\fish\fish_04s.jpg	3	-1	1	0	fish_04s.jpg	0	0.0	0	122.076296187239	122.126281217323	0.0499850300839171	89689
89.789	50	613	0	0	baton1	92	304	1	stimuli\baton1\baton1_04s.jpg	3	-1	1	0	baton1_04s.jpg	0	0.0	0	122.176292822696	122.22626346803699	0.0499706453410909	89789
89.889	50	614	0	0	lock	940	305	1	stimuli\lock\lock_05s.jpg	4	-1	1	0	lock_05s.jpg	0	0.0	0	122.276305061881	122.326269855839	0.0499647939577699	89889
89.989	50	615	0	0	coffee_filter	379	306	1	stimuli\coffee_filter\coffee_filter_11s.jpg	10	-1	1	0	coffee_filter_11s.jpg	0	0.0	0	122.376309011597	122.42628843407101	0.04997942247428	89989
