onset	duration	eventnumber	blocksequencenumber	isteststim	object	objectnumber	presentationnumber	sequencenumber	stim	stimnumber	teststimnumber	withinsequencenumber	istarget	stimname	response	rt	correct	time_stimon	time_stimoff	stimdur	sample
153.898	50	0	0	0	button2	231	0	0	stimuli\button2\button2_04s.jpg	3	-1	0	0	button2_04s.jpg	0	0.0	0	132.254503652279	132.30446976277702	0.0499661104986444	153898
153.998	50	1	0	0	spout	1520	1	0	stimuli\spout\spout_12s.jpg	11	-1	0	0	spout_12s.jpg	0	0.0	0	132.354502433271	132.404485122766	0.0499826894956641	153998
154.098	50	2	0	0	car	267	2	0	stimuli\car\car_05s.jpg	4	-1	0	0	car_05s.jpg	0	0.0	0	132.45450657804	132.504491218016	0.0499846399761736	154098
154.198	50	3	0	0	paperweight	1117	3	0	stimuli\paperweight\paperweight_11s.jpg	10	-1	0	0	paperweight_11s.jpg	0	0.0	0	132.554524619947	132.604492437036	0.0499678170890547	154198
154.298	50	4	0	0	popcorn	1223	4	0	stimuli\popcorn\popcorn_04s.jpg	3	-1	0	0	popcorn_04s.jpg	0	0.0	0	132.654508772306	132.70449194940701	0.0499831771012396	154298
154.398	50	5	0	0	skull	1458	5	0	stimuli\skull\skull_10s.jpg	9	-1	0	0	skull_10s.jpg	0	0.0	0	132.754516330373	132.804916665889	0.050400335516315	154398
154.498	50	6	0	0	cloud	364	6	0	stimuli\cloud\cloud_07s.jpg	6	-1	0	0	cloud_07s.jpg	0	0.0	0	132.85451389232202	132.904494387505	0.049980495183263	154498
154.598	50	7	0	0	curling_iron	463	7	0	stimuli\curling_iron\curling_iron_07s.jpg	6	-1	0	0	curling_iron_07s.jpg	0	0.0	0	132.95452778943599	133.004510966595	0.0499831771594472	154598
154.698	50	8	0	0	card	271	8	0	stimuli\card\card_07s.jpg	6	-1	0	0	card_07s.jpg	0	0.0	0	133.054523644678	133.104499751353	0.0499761066748761	154698
154.798	50	9	0	0	rhinoceros	1306	9	0	stimuli\rhinoceros\rhinoceros_10s.jpg	9	-1	0	0	rhinoceros_10s.jpg	0	0.0	0	133.154526326573	133.20448902371598	0.0499626971432008	154798
154.898	50	10	0	0	lunchbox	950	10	0	stimuli\lunchbox\lunchbox_02s.jpg	1	-1	0	0	lunchbox_02s.jpg	0	0.0	0	133.25450950372	133.30448512279	0.0499756190693006	154898
154.998	50	11	0	0	stove1	1563	11	0	stimuli\stove1\stove1_01b.jpg	0	-1	0	0	stove1_01b.jpg	1	0.0	0	133.3545060904	133.404491461813	0.0499853714136407	154998
155.098	50	12	0	0	juicer1	855	12	0	stimuli\juicer1\juicer1_09s.jpg	8	-1	0	0	juicer1_09s.jpg	1	0.0	0	133.454509747564	133.50449146179	0.0499817142263055	155098
155.198	50	13	0	0	crane	431	13	0	stimuli\crane\crane_02s.jpg	1	-1	0	0	crane_02s.jpg	0	0.0	0	133.55451072275198	133.604493899911	0.0499831771594472	155198
155.298	50	14	0	0	cream	436	14	0	stimuli\cream\cream_03s.jpg	2	-1	0	0	cream_03s.jpg	0	0.0	0	133.65451730566602	133.70449658180598	0.0499792761402205	155298
155.398	50	15	0	0	centerpiece	295	15	0	stimuli\centerpiece\centerpiece_04s.jpg	3	-1	0	0	centerpiece_04s.jpg	1	0.0	0	133.754548757104	133.804531690432	0.0499829333275557	155398
155.498	50	16	0	0	hot-water_bottle	802	16	0	stimuli\hot-water_bottle\hot-water_bottle_06s.jpg	5	-1	0	0	hot-water_bottle_06s.jpg	0	0.0	0	133.854534859944	133.90452900849	0.0499941485468298	155498
155.598	50	17	0	0	chip	333	17	0	stimuli\chip\chip_12s.jpg	11	-1	0	0	chip_12s.jpg	1	0.0	0	133.95455802185498	134.004535835178	0.049977813323494	155598
155.698	50	18	0	0	tube_top	1724	18	0	stimuli\tube_top\tube_top_08s.jpg	7	-1	0	0	tube_top_08s.jpg	1	0.0	0	134.054555583745	134.10451828088802	0.0499626971432008	155698
155.798	50	19	0	0	car_door	268	19	0	stimuli\car_door\car_door_11s.jpg	10	-1	0	0	car_door_11s.jpg	0	0.0	0	134.154560703784	134.204538760881	0.049978057097178	155798
155.898	50	20	0	0	prism	1241	20	0	stimuli\prism\prism_01b.jpg	0	-1	0	0	prism_01b.jpg	0	0.0	0	134.254559240886	134.304526570428	0.0499673295416869	155898
155.998	50	21	0	0	coil	384	21	0	stimuli\coil\coil_01s.jpg	0	-1	0	0	coil_01s.jpg	1	0.0	0	134.354562166613	134.404540223768	0.0499780571553856	155998
156.098	50	22	0	0	corn	412	22	0	stimuli\corn\corn_02s.jpg	1	-1	0	1	corn_02s.jpg	1	0.0571694672689773	1	134.454569968511	134.504539492307	0.0499695237958804	156098
156.198	50	23	0	0	bagpipe	56	23	0	stimuli\bagpipe\bagpipe_11s.jpg	10	-1	0	0	bagpipe_11s.jpg	0	0.0	0	134.554570456152	134.60452608281	0.0499556266586296	156198
156.298	50	24	0	0	ironing_board	833	24	0	stimuli\ironing_board\ironing_board_10s.jpg	9	-1	0	0	ironing_board_10s.jpg	1	0.25519168318714897	1	134.654547294253	134.70457167521798	0.050024380965624005	156298
156.398	50	25	0	0	dishwasher	491	25	0	stimuli\dishwasher\dishwasher_01b.jpg	0	-1	0	0	dishwasher_01b.jpg	0	0.0	0	134.75456679897601	134.80454656278	0.0499797638040036	156398
156.498	50	26	0	0	blindfold	142	26	0	stimuli\blindfold\blindfold_05s.jpg	4	-1	0	0	blindfold_05s.jpg	0	0.0	0	134.854568749492	134.90449487516898	0.0499261256773025	156498
156.598	50	27	0	0	bread	194	27	0	stimuli\bread\bread_10s.jpg	9	-1	0	0	bread_10s.jpg	1	0.492146402830258	1	134.954572162824	135.004553145671	0.0499809828470461	156598
156.698	50	28	0	0	kale	860	28	0	stimuli\kale\kale_04s.jpg	3	-1	0	0	kale_04s.jpg	0	0.0	0	135.054571431363	135.104538029467	0.0499665981042199	156698
156.798	50	29	0	0	frog	644	29	0	stimuli\frog\frog_05s.jpg	4	-1	0	0	frog_05s.jpg	1	0.692151766677853	1	135.15456021612	135.204537054233	0.0499768381123431	156798
156.898	50	30	0	0	shoelace	1426	30	0	stimuli\shoelace\shoelace_11s.jpg	10	-1	0	0	shoelace_11s.jpg	0	0.0	0	135.254566067597	135.304545343737	0.0499792761402205	156898
156.998	50	31	0	0	toucan	1690	31	0	stimuli\toucan\toucan_06s.jpg	5	-1	0	0	toucan_06s.jpg	1	0.892143477161881	1	135.35456119140102	135.404575332359	0.0500141409575008	156998
157.098	50	32	0	0	cap	265	32	0	stimuli\cap\cap_04s.jpg	3	-1	0	0	cap_04s.jpg	1	0.0	0	135.454592886614	135.504618974286	0.0500260876724496	157098
157.198	50	33	0	0	clothes	361	33	0	stimuli\clothes\clothes_11s.jpg	10	-1	0	0	clothes_11s.jpg	0	0.0	0	135.554579964723	135.604577526625	0.0499975619022734	157198
157.298	50	34	0	0	mulberry	1037	34	0	stimuli\mulberry\mulberry_02s.jpg	1	-1	0	0	mulberry_02s.jpg	1	0.0	0	135.654601663759	135.704587279004	0.0499856152455322	157298
157.398	50	35	0	0	notebook	1064	35	0	stimuli\notebook\notebook_10s.jpg	9	-1	0	0	notebook_10s.jpg	0	0.0	0	135.754599713313	135.80456460471	0.0499648913973942	157398
157.498	50	36	0	0	sheep	1414	36	0	stimuli\sheep\sheep_04n.jpg	3	-1	0	0	sheep_04n.jpg	1	0.0	0	135.85460263904	135.904598250461	0.0499956114217639	157498
157.598	50	37	0	0	snowball	1480	37	0	stimuli\snowball\snowball_02s.jpg	1	-1	0	0	snowball_02s.jpg	0	0.0	0	135.954607027583	136.004591667617	0.0499846400343813	157598
157.698	50	38	0	0	sandpaper	1356	38	0	stimuli\sandpaper\sandpaper_07s.jpg	6	-1	0	0	sandpaper_07s.jpg	1	0.0	0	136.05459410569202	136.104578501894	0.0499843962024897	157698
157.798	50	39	0	0	teabag	1632	39	0	stimuli\teabag\teabag_11s.jpg	10	-1	0	0	teabag_11s.jpg	0	0.0	0	136.154588741891	136.204566798988	0.049978057097178	157798
157.898	50	40	0	0	elephant	554	40	0	stimuli\elephant\elephant_04n.jpg	3	-1	0	0	elephant_04n.jpg	1	0.0	0	136.254587766656	136.304570456152	0.0499826894956641	157898
157.998	50	41	0	0	punch1	1254	41	0	stimuli\punch1\punch1_10s.jpg	9	-1	0	0	punch1_10s.jpg	0	0.0	0	136.354588254238	136.404571187566	0.0499829333275557	157998
158.098	50	42	0	0	deer	476	42	0	stimuli\deer\deer_09s.jpg	8	-1	0	0	deer_09s.jpg	1	0.0	0	136.454595324758	136.50457362568702	0.0499783009290695	158098
158.198	50	43	0	0	screwdriver	1391	43	0	stimuli\screwdriver\screwdriver_02s.jpg	1	-1	0	0	screwdriver_02s.jpg	0	0.0	0	136.554594837129	136.604574357101	0.049979519972112	158198
158.298	50	44	0	0	letter_opener	919	44	0	stimuli\letter_opener\letter_opener_05s.jpg	4	-1	0	0	letter_opener_05s.jpg	1	0.0	0	136.654590448539	136.704566555214	0.0499761066748761	158298
158.398	50	45	0	0	car_seat	269	45	0	stimuli\car_seat\car_seat_04s.jpg	3	-1	0	0	car_seat_04s.jpg	0	0.0	0	136.754625313333	136.804603126657	0.049977813323494	158398
158.498	50	46	0	0	cork	409	46	0	stimuli\cork\cork_07s.jpg	6	-1	0	0	cork_07s.jpg	0	0.0	0	136.854623850493	136.90461068472402	0.0499868342303671	158498
158.598	50	47	0	0	antenna	27	47	0	stimuli\antenna\antenna_06s.jpg	5	-1	0	0	antenna_06s.jpg	0	0.0	0	136.954638479045	137.00460166379298	0.0499631847487763	158598
158.698	50	48	0	0	sugar_cube	1579	48	0	stimuli\sugar_cube\sugar_cube_08s.jpg	7	-1	0	0	sugar_cube_08s.jpg	0	0.0	0	137.054610928579	137.104593618074	0.0499826894956641	158698
158.798	50	49	0	0	figurine	582	49	0	stimuli\figurine\figurine_06s.jpg	5	-1	0	0	figurine_06s.jpg	0	0.0	0	137.154639210494	137.20461994950898	0.0499807390151545	158798
158.898	50	50	0	0	record_player	1296	50	0	stimuli\record_player\record_player_06s.jpg	5	-1	0	0	record_player_06s.jpg	0	0.0	0	137.25463921047	137.30462019331802	0.0499809828470461	158898
158.998	50	51	0	0	scoreboard	1383	51	0	stimuli\scoreboard\scoreboard_03s.jpg	2	-1	0	0	scoreboard_03s.jpg	0	0.0	0	137.354627751396	137.404624825693	0.049997074296698	158998
159.098	50	52	0	0	dumpling	532	52	0	stimuli\dumpling\dumpling_10s.jpg	9	-1	0	0	dumpling_10s.jpg	0	0.0	0	137.454649938096	137.50462775141898	0.049977813323494	159098
159.198	50	53	0	0	bone	161	53	0	stimuli\bone\bone_02s.jpg	1	-1	0	0	bone_02s.jpg	0	0.0	0	137.55462433811002	137.604606783774	0.0499824456637725	159198
159.298	50	54	0	0	notepad	1065	54	0	stimuli\notepad\notepad_06s.jpg	5	-1	0	0	notepad_06s.jpg	0	0.0	0	137.654654570506	137.70463482191602	0.0499802514095791	159298
159.398	50	55	0	0	oyster	1092	55	0	stimuli\oyster\oyster_09s.jpg	8	-1	0	0	oyster_09s.jpg	0	0.0	0	137.754652863834	137.804634334287	0.0499814704526216	159398
159.498	50	56	0	0	fan	571	56	0	stimuli\fan\fan_07s.jpg	6	-1	0	0	fan_07s.jpg	0	0.0	0	137.854657252377	137.904642867623	0.0499856152455322	159498
159.598	50	57	0	0	snowsuit	1486	57	0	stimuli\snowsuit\snowsuit_06s.jpg	5	-1	0	0	snowsuit_06s.jpg	0	0.0	0	137.954659934272	138.004625069501	0.0499651352292858	159598
159.698	50	58	0	0	candle	253	58	0	stimuli\candle\candle_06n.jpg	5	-1	0	0	candle_06n.jpg	0	0.0	0	138.054661640956	138.104628726665	0.0499670857097954	159698
159.798	50	59	0	0	pincushion	1179	59	0	stimuli\pincushion\pincushion_02s.jpg	1	-1	0	0	pincushion_02s.jpg	0	0.0	0	138.154654326674	138.204645793361	0.0499914666870609	159798
159.898	50	60	0	0	juice	854	60	0	stimuli\juice\juice_08s.jpg	7	-1	0	0	juice_08s.jpg	0	0.0	0	138.254655545752	138.304649206693	0.0499936609412543	159898
159.998	50	61	0	0	cigar	343	61	0	stimuli\cigar\cigar_01b.jpg	0	-1	0	0	cigar_01b.jpg	0	0.0	0	138.354656033334	138.404652376194	0.0499963428592309	159998
160.098	50	62	0	0	cornbread	413	62	0	stimuli\cornbread\cornbread_02s.jpg	1	-1	0	0	cornbread_02s.jpg	0	0.0	0	138.454670905718	138.504640673345	0.0499697676277719	160098
160.198	50	63	0	0	harmonica	753	63	0	stimuli\harmonica\harmonica_04s.jpg	3	-1	0	0	harmonica_04s.jpg	0	0.0	0	138.55468114576098	138.604640429548	0.0499592837877572	160198
160.298	50	64	0	0	blinder	141	64	0	stimuli\blinder\blinder_11s.jpg	10	-1	0	0	blinder_11s.jpg	0	0.0	0	138.654677244776	138.704661153373	0.0499839085969143	160298
160.398	50	65	0	0	bandage	66	65	0	stimuli\bandage\bandage_04s.jpg	3	-1	0	0	bandage_04s.jpg	0	0.0	0	138.754662616178	138.804638479021	0.0499758628429845	160398
160.498	50	66	0	0	knife	879	66	0	stimuli\knife\knife_04s.jpg	3	-1	0	0	knife_04s.jpg	0	0.0	0	138.854657252377	138.904630433302	0.0499731809250079	160498
160.598	50	67	0	0	stove2	1564	67	0	stimuli\stove2\stove2_06s.jpg	5	-1	0	0	stove2_06s.jpg	0	0.0	0	138.954652132408	139.004632627591	0.049980495183263	160598
160.698	50	68	0	0	tricycle	1711	68	0	stimuli\tricycle\tricycle_09s.jpg	8	-1	0	0	tricycle_09s.jpg	0	0.0	0	139.054655058077	139.10463579715	0.0499807390733622	160698
160.798	50	69	0	0	thread	1651	69	0	stimuli\thread\thread_03s.jpg	2	-1	0	0	thread_03s.jpg	0	0.0	0	139.154664810514	139.204647256178	0.0499824456637725	160798
160.898	50	70	0	0	microscope	999	70	0	stimuli\microscope\microscope_06s.jpg	5	-1	0	0	microscope_06s.jpg	0	0.0	0	139.254664322885	139.304640429502	0.0499761066166684	160898
160.998	50	71	0	0	headlight	765	71	0	stimuli\headlight\headlight_06s.jpg	5	-1	0	0	headlight_06s.jpg	0	0.0	0	139.354664322862	139.404647256189	0.0499829333275557	160998
161.099	50	72	0	0	chihuahua	326	72	0	stimuli\chihuahua\chihuahua_04s.jpg	3	-1	0	0	chihuahua_04s.jpg	0	0.0	0	139.454700894305	139.50465969048702	0.0499587961821817	161099
161.199	50	73	0	0	hedge	773	73	0	stimuli\hedge\hedge_03s.jpg	2	-1	0	0	hedge_03s.jpg	0	0.0	0	139.55469870002702	139.604678951437	0.0499802514095791	161199
161.299	50	74	0	0	teacup	1633	74	0	stimuli\teacup\teacup_04s.jpg	3	-1	0	0	teacup_04s.jpg	0	0.0	0	139.65470186958598	139.70468748477302	0.0499856151873246	161299
161.399	50	75	0	0	duct	527	75	0	stimuli\duct\duct_01b.jpg	0	-1	0	0	duct_01b.jpg	0	0.0	0	139.754705526691	139.80467041808902	0.0499648913973942	161399
161.499	50	76	0	0	trigger	1713	76	0	stimuli\trigger\trigger_01s.jpg	0	-1	0	0	trigger_01s.jpg	0	0.0	0	139.854697480972	139.904687728616	0.0499902476440184	161499
161.599	50	77	0	0	honeypot	790	77	0	stimuli\honeypot\honeypot_07s.jpg	6	-1	0	0	honeypot_07s.jpg	0	0.0	0	139.95470772101498	140.00468821619899	0.049980495183263	161599
161.699	50	78	0	0	mouthpiece	1032	78	0	stimuli\mouthpiece\mouthpiece_08s.jpg	7	-1	0	0	mouthpiece_08s.jpg	0	0.0	0	140.054710646684	140.10467626951902	0.0499656228348613	161699
161.799	50	79	0	0	wick	1815	79	0	stimuli\wick\wick_01b.jpg	0	-1	0	0	wick_01b.jpg	0	0.0	0	140.154714060016	140.204667248589	0.0499531885725446	161799
161.899	50	80	0	0	scallop	1373	80	0	stimuli\scallop\scallop_03s.jpg	2	-1	0	0	scallop_03s.jpg	0	0.0	0	140.254686997156	140.304669199046	0.0499822018900886	161899
161.999	50	81	0	0	cloak	358	81	0	stimuli\cloak\cloak_02s.jpg	1	-1	0	0	cloak_02s.jpg	0	0.0	0	140.354690166714	140.404679195257	0.0499890285427682	161999
162.099	50	82	0	0	dalmatian	471	82	0	stimuli\dalmatian\dalmatian_04s.jpg	3	-1	0	0	dalmatian_04s.jpg	0	0.0	0	140.45469699334402	140.504678220022	0.0499812266789377	162099
162.199	50	83	0	0	cleat	353	83	0	stimuli\cleat\cleat_07s.jpg	6	-1	0	0	cleat_07s.jpg	0	0.0	0	140.55469870002702	140.60467821999902	0.049979519972112	162199
162.299	50	84	0	0	footprint	632	84	0	stimuli\footprint\footprint_07s.jpg	6	-1	0	0	footprint_07s.jpg	0	0.0	0	140.654698212398	140.704678220034	0.0499800076358952	162299
162.399	50	85	0	0	streetlight	1571	85	0	stimuli\streetlight\streetlight_11n.jpg	10	-1	0	0	streetlight_11n.jpg	0	0.0	0	140.754703088605	140.80468212097202	0.0499790323665366	162399
162.499	50	86	0	0	plug	1202	86	0	stimuli\plug\plug_07s.jpg	6	-1	0	0	plug_07s.jpg	0	0.0	0	140.854704307683	140.904694311437	0.0499900037539192	162499
162.599	50	87	0	0	column	388	87	0	stimuli\column\column_05s.jpg	4	-1	0	0	column_05s.jpg	0	0.0	0	140.954712597188	141.004691385722	0.049978788534645	162599
162.699	50	88	0	0	stalagmite	1534	88	0	stimuli\stalagmite\stalagmite_12s.jpg	11	-1	0	0	stalagmite_12s.jpg	0	0.0	0	141.054714547645	141.10469431144898	0.0499797638040036	162699
162.799	50	89	0	0	shaving_cream	1410	89	0	stimuli\shaving_cream\shaving_cream_05s.jpg	4	-1	0	0	shaving_cream_05s.jpg	0	0.0	0	141.154717717203	141.20472698193	0.0500092647271231	162799
162.899	50	90	0	0	paint	1096	90	0	stimuli\paint\paint_09s.jpg	8	-1	0	0	paint_09s.jpg	0	0.0	0	141.254743561032	141.304725762922	0.0499822018900886	162899
162.999	50	91	0	0	kangaroo	862	91	0	stimuli\kangaroo\kangaroo_05s.jpg	4	-1	0	0	kangaroo_05s.jpg	0	0.0	0	141.35473063908302	141.404701138148	0.04997049906523901	162999
163.099	50	92	0	0	banana	63	92	0	stimuli\banana\banana_06s.jpg	5	-1	0	0	banana_06s.jpg	0	0.0	0	141.454721374321	141.504701138125	0.0499797638040036	163099
163.199	50	93	0	0	crystal2	454	93	0	stimuli\crystal2\crystal2_05s.jpg	4	-1	0	0	crystal2_05s.jpg	0	0.0	0	141.554724056215	141.60470382001898	0.0499797638040036	163199
163.299	50	94	0	0	coop	404	94	0	stimuli\coop\coop_04s.jpg	3	-1	0	0	coop_04s.jpg	0	0.0	0	141.654725519125	141.704706501972	0.0499809828470461	163299
163.399	50	95	0	0	bin	125	95	0	stimuli\bin\bin_07s.jpg	6	-1	0	0	bin_07s.jpg	0	0.0	0	141.754727957188	141.804709183867	0.0499812266789377	163399
163.499	50	96	0	0	gas_mask	660	96	0	stimuli\gas_mask\gas_mask_07s.jpg	6	-1	0	0	gas_mask_07s.jpg	0	0.0	0	141.854730395309	141.904710159113	0.0499797638040036	163499
163.599	50	97	0	0	hairbrush	734	97	0	stimuli\hairbrush\hairbrush_09s.jpg	8	-1	0	0	hairbrush_09s.jpg	0	0.0	0	141.954736002896	142.004720886704	0.0499848838080652	163599
163.699	50	98	0	0	scoop	1381	98	0	stimuli\scoop\scoop_04s.jpg	3	-1	0	0	scoop_04s.jpg	0	0.0	0	142.054740147665	142.104717229551	0.049977081886027	163699
163.799	50	99	0	0	shell2	1418	99	0	stimuli\shell2\shell2_08s.jpg	7	-1	0	0	shell2_08s.jpg	0	0.0	0	142.154774281022	142.204749656259	0.049975375237409005	163799
163.899	50	100	0	0	stockings	1559	100	0	stimuli\stockings\stockings_10s.jpg	9	-1	0	0	stockings_10s.jpg	0	0.0	0	142.254756726732	142.304751850548	0.0499951238161884	163899
163.999	50	101	0	0	ice	816	101	0	stimuli\ice\ice_12s.jpg	11	-1	0	0	ice_12s.jpg	0	0.0	0	142.35475892102102	142.404756726755	0.049997805734165006	163999
164.099	50	102	0	0	bulletin_board	217	102	0	stimuli\bulletin_board\bulletin_board_07s.jpg	6	-1	0	0	bulletin_board_07s.jpg	0	0.0	0	142.454780132452	142.504743804806	0.0499636723543517	164099
164.199	50	103	0	0	moss	1022	103	0	stimuli\moss\moss_05s.jpg	4	-1	0	0	moss_05s.jpg	0	0.0	0	142.55477842578	142.604760383896	0.0499819581164047	164199
164.299	50	104	0	0	toga	1669	104	0	stimuli\toga\toga_10s.jpg	9	-1	0	0	toga_10s.jpg	0	0.0	0	142.654781839112	142.704764528666	0.0499826895538718	164299
164.399	50	105	0	0	chandelier	305	105	0	stimuli\chandelier\chandelier_06s.jpg	5	-1	0	0	chandelier_06s.jpg	0	0.0	0	142.754785740108	142.804771842959	0.0499861028511077	164399
164.499	50	106	0	0	soccer_ball	1488	106	0	stimuli\soccer_ball\soccer_ball_08s.jpg	7	-1	0	0	soccer_ball_08s.jpg	0	0.0	0	142.85479671152999	142.904773793416	0.049977081886027	164499
164.599	50	107	0	0	mosquito	1020	107	0	stimuli\mosquito\mosquito_04s.jpg	3	-1	0	0	mosquito_04s.jpg	0	0.0	0	142.954795004858	143.004762578174	0.0499675733153708	164599
164.699	50	108	0	0	nut	1066	108	0	stimuli\nut\nut_12s.jpg	11	-1	0	0	nut_12s.jpg	0	0.0	0	143.054783545784	143.104777206725	0.0499936609412543	164699
164.799	50	109	0	0	cotton_candy	421	109	0	stimuli\cotton_candy\cotton_candy_11s.jpg	10	-1	0	0	cotton_candy_11s.jpg	0	0.0	0	143.15479939343598	143.204781107721	0.0499817142845131	164799
164.899	50	110	0	0	paper_towel	1115	110	0	stimuli\paper_towel\paper_towel_06s.jpg	5	-1	0	0	paper_towel_06s.jpg	0	0.0	0	143.254803538206	143.30476769816602	0.0499641599599272	164899
164.999	50	111	0	0	tambourine	1619	111	0	stimuli\tambourine\tambourine_04s.jpg	3	-1	0	0	tambourine_04s.jpg	0	0.0	0	143.354807195312	143.40479061630302	0.0499834209913388	164999
165.099	50	112	0	0	leotard	918	112	0	stimuli\leotard\leotard_08s.jpg	7	-1	0	0	leotard_08s.jpg	0	0.0	0	143.454794517253	143.504790372448	0.0499958551954478	165099
165.199	50	113	0	0	photograph	1164	113	0	stimuli\photograph\photograph_03s.jpg	2	-1	0	0	photograph_03s.jpg	0	0.0	0	143.554795492499	143.60479232296302	0.0499968304648064	165199
165.299	50	114	0	0	kimono	873	114	0	stimuli\kimono\kimono_07s.jpg	6	-1	0	0	kimono_07s.jpg	0	0.0	0	143.654814265843	143.704794517253	0.0499802514095791	165299
165.399	50	115	0	0	warthog	1781	115	0	stimuli\warthog\warthog_03s.jpg	2	-1	0	0	warthog_03s.jpg	0	0.0	0	143.754815241031	143.80479841819	0.0499831771594472	165399
165.499	50	116	0	0	scalpel	1374	116	0	stimuli\scalpel\scalpel_01b.jpg	0	-1	0	0	scalpel_01b.jpg	0	0.0	0	143.854802562972	143.904807682964	0.0500051199924201	165499
165.599	50	117	0	0	watermelon	1793	117	0	stimuli\watermelon\watermelon_05s.jpg	4	-1	0	0	watermelon_05s.jpg	0	0.0	0	143.954807195347	144.004803294374	0.0499960990273394	165599
165.699	50	118	0	0	doily	498	118	0	stimuli\doily\doily_02s.jpg	1	-1	0	0	doily_02s.jpg	0	0.0	0	144.054826212523	144.10481060866698	0.0499843961442821	165699
165.799	50	119	0	0	machete	953	119	0	stimuli\machete\machete_08s.jpg	7	-1	0	0	machete_08s.jpg	0	0.0	0	144.15482865058598	144.204809633433	0.0499809828470461	165799
165.899	50	120	0	0	fishhook	602	120	0	stimuli\fishhook\fishhook_08s.jpg	7	-1	0	0	fishhook_08s.jpg	0	0.0	0	144.254812802945	144.304783545784	0.0499707428389229	165899
165.999	50	121	0	0	magnifier	957	121	0	stimuli\magnifier\magnifier_06s.jpg	5	-1	0	0	magnifier_06s.jpg	0	0.0	0	144.354803782015	144.404788178159	0.0499843961442821	165999
166.099	50	122	0	0	dart	473	122	0	stimuli\dart\dart_07s.jpg	6	-1	0	0	dart_07s.jpg	0	0.0	0	144.454805976304	144.504781351541	0.049975375237409005	166099
166.199	50	123	0	0	dial	483	123	0	stimuli\dial\dial_05s.jpg	4	-1	0	0	dial_05s.jpg	0	0.0	0	144.554804513406	144.604785008647	0.0499804952414706	166199
166.299	50	124	0	0	banjo	68	124	0	stimuli\banjo\banjo_12s.jpg	11	-1	0	0	banjo_12s.jpg	0	0.0	0	144.654844010598	144.70480817055798	0.0499641599599272	166299
166.399	50	125	0	0	apple	30	125	0	stimuli\apple\apple_04s.jpg	3	-1	0	0	apple_04s.jpg	0	0.0	0	144.754845229676	144.804829869652	0.0499846399761736	166399
166.499	50	126	0	0	lamp	891	126	0	stimuli\lamp\lamp_05s.jpg	4	-1	0	0	lamp_05s.jpg	0	0.0	0	144.854843766778	144.9048262125	0.0499824457219802	166499
166.599	50	127	0	0	wire_cutters	1829	127	0	stimuli\wire_cutters\wire_cutters_08s.jpg	7	-1	0	0	wire_cutters_08s.jpg	0	0.0	0	144.954848886817	145.004829869664	0.0499809828470461	166599
166.699	50	128	0	0	sewing_machine	1407	128	0	stimuli\sewing_machine\sewing_machine_04s.jpg	3	-1	0	0	sewing_machine_04s.jpg	0	0.0	0	145.054852300149	145.104826700117	0.0499743999680504	166699
166.799	50	129	0	0	peanut	1131	129	0	stimuli\peanut\peanut_05s.jpg	4	-1	0	0	peanut_05s.jpg	0	0.0	0	145.15485473821198	145.204838890582	0.0499841523705982	166799
166.899	50	130	0	0	drawer	516	130	0	stimuli\drawer\drawer_11s.jpg	10	-1	0	0	drawer_11s.jpg	0	0.0	0	145.25485863920798	145.304823530605	0.0499648913973942	166899
166.999	50	131	0	0	latch	900	131	0	stimuli\latch\latch_03s.jpg	2	-1	0	0	latch_03s.jpg	0	0.0	0	145.354865465837	145.404841816286	0.04997635044856	166999
167.099	50	132	0	0	cashew	281	132	0	stimuli\cashew\cashew_06s.jpg	5	-1	0	0	cashew_06s.jpg	0	0.0	0	145.454846936336	145.504826943914	0.0499800075776875	167099
167.199	50	133	0	0	train	1698	133	0	stimuli\train\train_07s.jpg	6	-1	0	0	train_07s.jpg	0	0.0	0	145.554864490638	145.604847423907	0.049982933269347996	167199
167.299	50	134	0	0	scissors	1379	134	0	stimuli\scissors\scissors_08s.jpg	7	-1	0	0	scissors_08s.jpg	0	0.0	0	145.654870829661	145.704848886817	0.0499780571553856	167299
167.399	50	135	0	0	oar	1068	135	0	stimuli\oar\oar_10s.jpg	9	-1	0	0	oar_10s.jpg	0	0.0	0	145.754870098259	145.80485278775402	0.0499826894956641	167399
167.499	50	136	0	0	wall	1775	136	0	stimuli\wall\wall_12s.jpg	11	-1	0	0	wall_12s.jpg	0	0.0	0	145.854857420141	145.904857176298	0.0499997561564669	167499
167.599	50	137	0	0	airbag	7	137	0	stimuli\airbag\airbag_05s.jpg	4	-1	0	0	airbag_05s.jpg	0	0.0	0	145.954864734435	146.004860345856	0.0499956114217639	167599
167.699	50	138	0	0	rollerskate	1327	138	0	stimuli\rollerskate\rollerskate_09s.jpg	8	-1	0	0	rollerskate_09s.jpg	0	0.0	0	146.054867172497	146.10486595344298	0.04999878094531599	167699
167.799	50	139	0	0	lingerie	932	139	0	stimuli\lingerie\lingerie_04s.jpg	3	-1	0	0	lingerie_04s.jpg	0	0.0	0	146.154884239193	146.204866928689	0.0499826894956641	167799
167.899	50	140	0	0	handle	748	140	0	stimuli\handle\handle_01b.jpg	0	-1	0	0	handle_01b.jpg	0	0.0	0	146.254888627795	146.304865953454	0.0499773256597109	167899
167.999	50	141	0	0	scone	1380	141	0	stimuli\scone\scone_10s.jpg	9	-1	0	0	scone_10s.jpg	0	0.0	0	146.354896185861	146.40487253631	0.04997635044856	167999
168.099	50	142	0	0	hairnet	736	142	0	stimuli\hairnet\hairnet_05s.jpg	4	-1	0	0	hairnet_05s.jpg	0	0.0	0	146.45488911541202	146.504875705868	0.0499865904566832	168099
168.199	50	143	0	0	bow1	174	143	0	stimuli\bow1\bow1_12s.jpg	11	-1	0	0	bow1_12s.jpg	0	0.0	0	146.554891553475	146.604859614396	0.0499680609209463	168199
168.299	50	144	0	0	crucifix	449	144	0	stimuli\crucifix\crucifix_09s.jpg	8	-1	0	0	crucifix_09s.jpg	0	0.0	0	146.654893991596	146.704874974443	0.0499809828470461	168299
168.399	50	145	0	0	incense	826	145	0	stimuli\incense\incense_09s.jpg	8	-1	0	0	incense_09s.jpg	0	0.0	0	146.754899843014	146.804877656337	0.049977813323494	168399
168.499	50	146	0	0	cookie_sheet	402	146	0	stimuli\cookie_sheet\cookie_sheet_01b.jpg	0	-1	0	0	cookie_sheet_01b.jpg	0	0.0	0	146.854872292548	146.904821580101	0.0499492875533178	168499
168.599	50	147	0	0	pelican	1140	147	0	stimuli\pelican\pelican_07s.jpg	6	-1	0	0	pelican_07s.jpg	0	0.0	0	146.954871073482	147.00485010584802	0.0499790323665366	168599
168.699	50	148	0	0	buckle	210	148	0	stimuli\buckle\buckle_10s.jpg	9	-1	0	0	buckle_10s.jpg	0	0.0	0	147.054873267771	147.104855957266	0.0499826894956641	168699
168.799	50	149	0	0	racehorse	1267	149	0	stimuli\racehorse\racehorse_03s.jpg	2	-1	0	0	racehorse_03s.jpg	0	0.0	0	147.154873267747	147.204854250595	0.0499809828470461	168799
168.899	50	150	0	0	wheelchair	1808	150	0	stimuli\wheelchair\wheelchair_09n.jpg	8	-1	0	0	wheelchair_09n.jpg	0	0.0	0	147.254878143955	147.304859614407	0.0499814704526216	168899
168.999	50	151	0	0	calf2	242	151	0	stimuli\calf2\calf2_08s.jpg	7	-1	0	0	calf2_08s.jpg	0	0.0	0	147.354914959229	147.40489813633002	0.0499831771012396	168999
169.099	50	152	0	0	scarf	1377	152	0	stimuli\scarf\scarf_04s.jpg	3	-1	0	0	scarf_04s.jpg	0	0.0	0	147.454917884956	147.504899111576	0.049981226620730006	169099
169.199	50	153	0	0	rocking_chair	1321	153	0	stimuli\rocking_chair\rocking_chair_07s.jpg	6	-1	0	0	rocking_chair_07s.jpg	0	0.0	0	147.554919835413	147.604901793471	0.0499819580581971	169199
169.299	50	154	0	0	flagpole	606	154	0	stimuli\flagpole\flagpole_03s.jpg	2	-1	0	1	flagpole_03s.jpg	0	0.0	0	147.654921542096	147.704902524943	0.0499809828470461	169299
169.399	50	155	0	0	nail	1046	155	0	stimuli\nail\nail_12s.jpg	11	-1	0	0	nail_12s.jpg	0	0.0	0	147.754922273511	147.80490545061198	0.0499831771012396	169399
169.499	50	156	0	0	projector	1242	156	0	stimuli\projector\projector_05s.jpg	4	-1	0	0	projector_05s.jpg	0	0.0	0	147.85491349635402	147.904912033526	0.0499985371716321	169499
169.599	50	157	0	0	router	1336	157	0	stimuli\router\router_03s.jpg	2	-1	0	0	router_03s.jpg	0	0.0	0	147.954918860167	148.00488033826701	0.0499614781001583	169599
169.699	50	158	0	0	lemonade	915	158	0	stimuli\lemonade\lemonade_06s.jpg	5	-1	0	0	lemonade_06s.jpg	0	0.0	0	148.054904475401	148.104904719221	0.05000024382025	169699
169.799	50	159	0	0	blowgun	147	159	0	stimuli\blowgun\blowgun_02s.jpg	1	-1	0	0	blowgun_02s.jpg	0	0.0	0	148.15493031923	148.20490813255302	0.049977813323494	169799
169.899	50	160	0	0	cheeseburger	313	160	0	stimuli\cheeseburger\cheeseburger_12s.jpg	11	-1	0	0	cheeseburger_12s.jpg	0	0.0	0	148.254931782081	148.304912521096	0.0499807390151545	169899
169.999	50	161	0	0	stingray	1556	161	0	stimuli\stingray\stingray_06s.jpg	5	-1	0	0	stingray_06s.jpg	0	0.0	0	148.354931294452	148.40491715353	0.0499858590774238	169999
170.099	50	162	0	0	watch	1786	162	0	stimuli\watch\watch_01b.jpg	0	-1	0	0	watch_01b.jpg	0	0.0	0	148.454932025867	148.504938608734	0.0500065828673542	170099
170.199	50	163	0	0	contact_lens	397	163	0	stimuli\contact_lens\contact_lens_10s.jpg	9	-1	0	0	contact_lens_10s.jpg	0	0.0	0	148.554945191601	148.60492081067102	0.0499756190693006	170199
170.299	50	164	0	0	clam	349	164	0	stimuli\clam\clam_12s.jpg	11	-1	0	0	clam_12s.jpg	0	0.0	0	148.654939583968	148.70493519539	0.0499956114217639	170299
170.399	50	165	0	0	thermostat	1648	165	0	stimuli\thermostat\thermostat_05s.jpg	4	-1	0	0	thermostat_05s.jpg	0	0.0	0	148.75494250969498	148.80492471158502	0.0499822018900886	170399
170.499	50	166	0	0	nutcracker	1067	166	0	stimuli\nutcracker\nutcracker_10s.jpg	9	-1	0	0	nutcracker_10s.jpg	0	0.0	0	148.854947385902	148.904926418269	0.0499790323665366	170499
170.599	50	167	0	0	bowler_hat	178	167	0	stimuli\bowler_hat\bowler_hat_12s.jpg	11	-1	0	0	bowler_hat_12s.jpg	0	0.0	0	148.954949824023	149.004926662077	0.0499768380541354	170599
170.699	50	168	0	0	lid	923	168	0	stimuli\lid\lid_12s.jpg	11	-1	0	0	lid_12s.jpg	0	0.0	0	149.054949580168	149.104932269722	0.0499826895538718	170699
170.799	50	169	0	0	windowsill	1819	169	0	stimuli\windowsill\windowsill_11s.jpg	10	-1	0	0	windowsill_11s.jpg	0	0.0	0	149.154946410679	149.204922517296	0.0499761066166684	170799
170.899	50	170	0	0	game	654	170	0	stimuli\game\game_01s.jpg	0	-1	0	0	game_01s.jpg	0	0.0	0	149.254931294476	149.304915203014	0.0499839085387066	170899
170.999	50	171	0	0	mug	1036	171	0	stimuli\mug\mug_02s.jpg	1	-1	0	0	mug_02s.jpg	0	0.0	0	149.354935195413	149.40494787349598	0.0500126780825667	170999
171.099	50	172	0	0	meat	987	172	0	stimuli\meat\meat_01b.jpg	0	-1	0	0	meat_01b.jpg	0	0.0	0	149.454973473563	149.504935683042	0.0499622094794177	171099
171.199	50	173	0	0	speaker	1509	173	0	stimuli\speaker\speaker_09s.jpg	8	-1	0	0	speaker_09s.jpg	0	0.0	0	149.55497347353997	149.604941046855	0.0499675733153708	171199
171.299	50	174	0	0	taxi	1630	174	0	stimuli\taxi\taxi_08s.jpg	7	-1	0	0	taxi_08s.jpg	0	0.0	0	149.654975180223	149.704961039242	0.0499858590192162	171299
171.399	50	175	0	0	sling	1466	175	0	stimuli\sling\sling_12s.jpg	11	-1	0	0	sling_12s.jpg	0	0.0	0	149.754979568766	149.80495933257	0.0499797638040036	171399
171.499	50	176	0	0	hot-air_balloon	801	176	0	stimuli\hot-air_balloon\hot-air_balloon_03s.jpg	2	-1	0	0	hot-air_balloon_03s.jpg	0	0.0	0	149.854966646875	149.904964940215	0.0499982933397405	171499
171.599	50	177	0	0	icemaker	821	177	0	stimuli\icemaker\icemaker_06s.jpg	5	-1	0	0	icemaker_06s.jpg	0	0.0	0	149.954982982134	150.004967378278	0.0499843961442821	171599
171.699	50	178	0	0	strainer	1566	178	0	stimuli\strainer\strainer_07s.jpg	6	-1	0	0	strainer_07s.jpg	0	0.0	0	150.054990052595	150.104969084961	0.0499790323665366	171699
171.799	50	179	0	0	ice_cube	819	179	0	stimuli\ice_cube\ice_cube_08s.jpg	7	-1	0	0	ice_cube_08s.jpg	0	0.0	0	150.154988589755	150.20495421259	0.0499656228348613	171799
171.899	50	180	0	0	shopping_basket	1427	180	0	stimuli\shopping_basket\shopping_basket_02s.jpg	1	-1	0	0	shopping_basket_02s.jpg	0	0.0	0	150.254981031641	150.304974204977	0.0499931733356789	171899
171.999	50	181	0	0	blind	140	181	0	stimuli\blind\blind_04s.jpg	3	-1	0	0	blind_04s.jpg	0	0.0	0	150.355002243072	150.404984201188	0.0499819581164047	171999
172.099	50	182	0	0	giraffe	675	182	0	stimuli\giraffe\giraffe_03s.jpg	2	-1	0	0	giraffe_03s.jpg	0	0.0	0	150.45500078023198	150.504965915461	0.0499651352292858	172099
172.199	50	183	0	0	diving_board	494	183	0	stimuli\diving_board\diving_board_12s.jpg	11	-1	0	0	diving_board_12s.jpg	0	0.0	0	150.55500126781402	150.604983713536	0.0499824457219802	172199
172.299	50	184	0	0	tag	1616	184	0	stimuli\tag\tag_12s.jpg	11	-1	0	0	tag_12s.jpg	0	0.0	0	150.65500492497802	150.704968353559	0.0499634285806678	172299
172.399	50	185	0	0	ottoman	1086	185	0	stimuli\ottoman\ottoman_12s.jpg	11	-1	0	0	ottoman_12s.jpg	0	0.0	0	150.755005412619	150.804970547848	0.0499651352292858	172399
172.499	50	186	0	0	granite	700	186	0	stimuli\granite\granite_05s.jpg	4	-1	0	0	granite_05s.jpg	0	0.0	0	150.855010044994	150.904996635451	0.0499865904566832	172499
172.599	50	187	0	0	pinball	1178	187	0	stimuli\pinball\pinball_02s.jpg	1	-1	0	0	pinball_02s.jpg	0	0.0	0	150.955012726889	151.00497883732902	0.0499661104404368	172599
172.699	50	188	0	0	waterwheel	1794	188	0	stimuli\waterwheel\waterwheel_12s.jpg	11	-1	0	0	waterwheel_12s.jpg	0	0.0	0	151.05500102404	151.104995904025	0.0499948799842969	172699
172.799	50	189	0	0	window	1818	189	0	stimuli\window\window_02s.jpg	1	-1	0	0	window_02s.jpg	0	0.0	0	151.155025648826	151.20499907352502	0.0499734246986918	172799
172.899	50	190	0	0	headrest	767	190	0	stimuli\headrest\headrest_10s.jpg	9	-1	0	0	headrest_10s.jpg	0	0.0	0	151.255020528799	151.30500126781402	0.0499807390151545	172899
172.999	50	191	0	0	olive	1075	191	0	stimuli\olive\olive_05s.jpg	4	-1	0	0	olive_05s.jpg	0	0.0	0	151.355024429737	151.405005412584	0.0499809828470461	172999
173.099	50	192	0	0	box	181	192	0	stimuli\box\box_10s.jpg	9	-1	0	0	box_10s.jpg	0	0.0	0	151.455024673545	151.504988589732	0.0499639161862433	173099
173.199	50	193	0	0	go-kart	682	193	0	stimuli\go-kart\go-kart_09s.jpg	8	-1	0	0	go-kart_09s.jpg	0	0.0	0	151.555029062147	151.605007606908	0.0499785447609611	173199
173.299	50	194	0	0	swing_set	1599	194	0	stimuli\swing_set\swing_set_08s.jpg	7	-1	0	0	swing_set_08s.jpg	0	0.0	0	151.65503150021001	151.704995172622	0.0499636724125594	173299
173.399	50	195	0	0	branch	192	195	0	stimuli\branch\branch_03s.jpg	2	-1	0	0	branch_03s.jpg	0	0.0	0	151.755034425936	151.805014433572	0.0499800076358952	173399
173.499	50	196	0	0	rock	1319	196	0	stimuli\rock\rock_03s.jpg	2	-1	0	0	rock_03s.jpg	0	0.0	0	151.85502004116998	151.905001024017	0.0499809828470461	173499
173.599	50	197	0	0	suit	1580	197	0	stimuli\suit\suit_01b.jpg	0	-1	0	0	suit_01b.jpg	0	0.0	0	151.955039545952	152.005021504068	0.0499819581164047	173599
173.699	50	198	0	0	hummus	812	198	0	stimuli\hummus\hummus_08s.jpg	7	-1	0	0	hummus_08s.jpg	0	0.0	0	152.055026867834	152.105022235482	0.04999536764808	173699
173.799	50	199	0	0	fireplace	595	199	0	stimuli\fireplace\fireplace_06s.jpg	5	-1	0	0	fireplace_06s.jpg	0	0.0	0	152.15504515357298	152.205016871681	0.0499717181082815	173799
173.899	50	200	0	0	wrap	1837	200	0	stimuli\wrap\wrap_07s.jpg	6	-1	0	0	wrap_07s.jpg	0	0.0	0	152.255036132643	152.305021504057	0.0499853714136407	173899
173.999	50	201	0	0	loincloth	944	201	0	stimuli\loincloth\loincloth_05s.jpg	4	-1	0	0	loincloth_05s.jpg	0	0.0	0	152.355043203104	152.405024429783	0.0499812266789377	173999
174.099	50	202	0	0	cash_machine	279	202	0	stimuli\cash_machine\cash_machine_10s.jpg	9	-1	0	0	cash_machine_10s.jpg	0	0.0	0	152.455028574506	152.505000048783	0.0499714742763899	174099
174.199	50	203	0	0	spark_plug	1506	203	0	stimuli\spark_plug\spark_plug_11s.jpg	10	-1	0	0	spark_plug_11s.jpg	0	0.0	0	152.555020041182	152.605010044994	0.0499900038121268	174199
174.299	50	204	0	0	splinter	1516	204	0	stimuli\splinter\splinter_06s.jpg	5	-1	0	0	splinter_06s.jpg	0	0.0	0	152.655055149749	152.705027599295	0.0499724495457485	174299
174.399	50	205	0	0	brace	186	205	0	stimuli\brace\brace_11s.jpg	10	-1	0	0	brace_11s.jpg	0	0.0	0	152.755044665944	152.805042471678	0.049997805734165006	174399
174.499	50	206	0	0	tongs	1674	206	0	stimuli\tongs\tongs_11s.jpg	10	-1	0	0	tongs_11s.jpg	0	0.0	0	152.855064902164	152.90504515357298	0.0499802514095791	174499
174.599	50	207	0	0	doll	499	207	0	stimuli\doll\doll_11s.jpg	10	-1	0	0	doll_11s.jpg	0	0.0	0	152.95506734028498	153.005051736429	0.0499843961442821	174599
174.699	50	208	0	0	binder	126	208	0	stimuli\binder\binder_11s.jpg	10	-1	0	0	binder_11s.jpg	0	0.0	0	153.055068803136	153.10505612503	0.0499873218941502	174699
174.799	50	209	0	0	cardboard	272	209	0	stimuli\cardboard\cardboard_08s.jpg	7	-1	0	0	cardboard_08s.jpg	0	0.0	0	153.155058319331	153.205057587882	0.0499992685508914	174799
174.899	50	210	0	0	flypaper	622	210	0	stimuli\flypaper\flypaper_10s.jpg	9	-1	0	0	flypaper_10s.jpg	0	0.0	0	153.255078311719	153.30505539360502	0.049977081886027	174899
174.999	50	211	0	0	measuring_cup	986	211	0	stimuli\measuring_cup\measuring_cup_10s.jpg	9	-1	0	0	measuring_cup_10s.jpg	0	0.0	0	153.355078799301	153.40505905071	0.0499802514095791	174999
175.099	50	212	0	0	ramp	1283	212	0	stimuli\ramp\ramp_03s.jpg	2	-1	0	1	ramp_03s.jpg	0	0.0	0	153.45505734405	153.505027355452	0.0499700114014558	175099
175.199	50	213	0	0	cornmeal	415	213	0	stimuli\cornmeal\cornmeal_02s.jpg	1	-1	0	0	cornmeal_02s.jpg	0	0.0	0	153.555049542163	153.605030037405	0.0499804952414706	175199
175.299	50	214	0	0	awning	44	214	0	stimuli\awning\awning_12s.jpg	11	-1	0	0	awning_12s.jpg	0	0.0	0	153.655050273577	153.705031987862	0.0499817142845131	175299
175.399	50	215	0	0	trident	1712	215	0	stimuli\trident\trident_05s.jpg	4	-1	0	0	trident_05s.jpg	0	0.0	0	153.755087088852	153.80505393073	0.0499668418779038	175399
175.499	50	216	0	0	stamp2	1536	216	0	stimuli\stamp2\stamp2_02s.jpg	1	-1	0	0	stamp2_02s.jpg	0	0.0	0	153.855096597399	153.905069778382	0.0499731809832156	175499
175.599	50	217	0	0	chess_piece	317	217	0	stimuli\chess_piece\chess_piece_05s.jpg	4	-1	0	0	chess_piece_05s.jpg	1	0.5517481153365219	1	153.95509342791001	154.005073191714	0.0499797638040036	175599
175.699	50	218	0	0	quiche	1262	218	0	stimuli\quiche\quiche_02s.jpg	1	-1	0	0	quiche_02s.jpg	0	0.0	0	154.055097085016	154.10510537458998	0.0500082895741798	175699
175.799	50	219	0	0	pine_needle	1180	219	0	stimuli\pine_needle\pine_needle_01b.jpg	0	-1	0	0	pine_needle_01b.jpg	0	0.0	0	154.155100010743	154.20506246405398	0.0499624533113092	175799
175.899	50	220	0	0	marker	975	220	0	stimuli\marker\marker_08s.jpg	7	-1	0	0	marker_08s.jpg	0	0.0	0	154.255103667907	154.305067827867	0.0499641599599272	175899
175.999	50	221	0	0	videocassette	1761	221	0	stimuli\videocassette\videocassette_10n.jpg	9	-1	0	0	videocassette_10n.jpg	0	0.0	0	154.355104155547	154.405068071675	0.0499639161280356	175999
176.099	50	222	0	0	xylophone	1843	222	0	stimuli\xylophone\xylophone_04s.jpg	3	-1	0	0	xylophone_04s.jpg	0	0.0	0	154.455075142148	154.505051736429	0.0499765942804515	176099
176.199	50	223	0	0	aquarium	34	223	0	stimuli\aquarium\aquarium_03s.jpg	2	-1	0	0	aquarium_03s.jpg	0	0.0	0	154.555074166914	154.605057587847	0.0499834209331311	176199
176.299	50	224	0	0	dog	495	224	0	stimuli\dog\dog_11s.jpg	10	-1	0	0	dog_11s.jpg	0	0.0	0	154.655113176501	154.70509440312202	0.049981226620730006	176299
176.399	50	225	0	0	blower	145	225	0	stimuli\blower\blower_08s.jpg	7	-1	0	0	blower_08s.jpg	0	0.0	0	154.755121709837	154.805096597411	0.0499748875736259	176399
176.499	50	226	0	0	can_opener	251	226	0	stimuli\can_opener\can_opener_05s.jpg	4	-1	0	0	can_opener_05s.jpg	0	0.0	0	154.855084163137	154.90506660885902	0.0499824457219802	176499
176.599	50	227	0	0	jackhammer	837	227	0	stimuli\jackhammer\jackhammer_04s.jpg	3	-1	0	0	jackhammer_04s.jpg	0	0.0	0	154.955087332637	155.005068315484	0.0499809828470461	176599
176.699	50	228	0	0	bark	74	228	0	stimuli\bark\bark_03s.jpg	2	-1	0	0	bark_03s.jpg	0	0.0	0	155.055088795489	155.10506855929302	0.0499797638040036	176699
176.799	50	229	0	0	belt	118	229	0	stimuli\belt\belt_11s.jpg	10	-1	0	0	belt_11s.jpg	0	0.0	0	155.155091477442	155.205073191668	0.0499817142263055	176799
176.899	50	230	0	0	snail	1476	230	0	stimuli\snail\snail_02s.jpg	1	-1	0	0	snail_02s.jpg	0	0.0	0	155.255101717426	155.305074898351	0.0499731809250079	176899
176.999	50	231	0	0	egg_roll	547	231	0	stimuli\egg_roll\egg_roll_11s.jpg	10	-1	0	0	egg_roll_11s.jpg	0	0.0	0	155.35509976692302	155.405082456477	0.0499826895538718	176999
177.099	50	232	0	0	meatloaf	990	232	0	stimuli\meatloaf\meatloaf_06s.jpg	5	-1	0	0	meatloaf_06s.jpg	0	0.0	0	155.45510098600099	155.505079043098	0.049978057097178	177099
177.199	50	233	0	0	granola	701	233	0	stimuli\granola\granola_08s.jpg	7	-1	0	0	granola_08s.jpg	0	0.0	0	155.555101961247	155.605115858372	0.0500138971256092	177199
177.299	50	234	0	0	gearshift	668	234	0	stimuli\gearshift\gearshift_06s.jpg	5	-1	0	0	gearshift_06s.jpg	0	0.0	0	155.655137069814	155.705119759368	0.0499826895538718	177299
177.399	50	235	0	0	hot_tub	804	235	0	stimuli\hot_tub\hot_tub_07s.jpg	6	-1	0	0	hot_tub_07s.jpg	0	0.0	0	155.755128048884	155.805121709825	0.0499936609412543	177399
177.499	50	236	0	0	gurney	728	236	0	stimuli\gurney\gurney_10s.jpg	9	-1	0	0	gurney_10s.jpg	0	0.0	0	155.85512902413	155.90510927553998	0.0499802514095791	177499
177.599	50	237	0	0	counter	424	237	0	stimuli\counter\counter_06s.jpg	5	-1	0	0	counter_06s.jpg	0	0.0	0	155.955133900279	156.005129267927	0.04999536764808	177599
177.699	50	238	0	0	sunglasses	1585	238	0	stimuli\sunglasses\sunglasses_05s.jpg	4	-1	0	0	sunglasses_05s.jpg	0	0.0	0	156.055151942244	156.105131949822	0.0499800075776875	177699
177.799	50	239	0	0	barbed_wire	71	239	0	stimuli\barbed_wire\barbed_wire_12s.jpg	11	-1	0	0	barbed_wire_12s.jpg	0	0.0	0	156.155140726944	156.205118784099	0.0499780571553856	177799
177.899	50	240	0	0	suitcase	1581	240	0	stimuli\suitcase\suitcase_10s.jpg	9	-1	0	0	suitcase_10s.jpg	0	0.0	0	156.255139995541	156.305120734556	0.0499807390151545	177899
177.999	50	241	0	0	groundhog	718	241	0	stimuli\groundhog\groundhog_04s.jpg	3	-1	0	0	groundhog_04s.jpg	0	0.0	0	156.355158525053	156.405141214607	0.0499826895538718	177999
178.099	50	242	0	0	shears	1412	242	0	stimuli\shears\shears_09s.jpg	8	-1	0	0	shears_09s.jpg	0	0.0	0	156.455161938386	156.50514170219	0.0499797638040036	178099
178.199	50	243	0	0	toast	1665	243	0	stimuli\toast\toast_09s.jpg	8	-1	0	0	toast_09s.jpg	0	0.0	0	156.555147553619	156.605143408873	0.0499958552536555	178199
178.299	50	244	0	0	vase	1753	244	0	stimuli\vase\vase_04s.jpg	3	-1	0	0	vase_04s.jpg	0	0.0	0	156.655150723178	156.705149747955	0.0499990247772075	178299
178.399	50	245	0	0	computer	394	245	0	stimuli\computer\computer_05s.jpg	4	-1	0	0	computer_05s.jpg	0	0.0	0	156.75517217844	156.805150479369	0.0499783009290695	178399
178.499	50	246	0	0	backscratcher	50	246	0	stimuli\backscratcher\backscratcher_12s.jpg	11	-1	0	0	backscratcher_12s.jpg	0	0.0	0	156.855175835546	156.90515974414302	0.0499839085969143	178499
178.599	50	247	0	0	glass	677	247	0	stimuli\glass\glass_07s.jpg	6	-1	0	0	glass_07s.jpg	0	0.0	0	156.955177786062	157.005155111721	0.0499773256597109	178599
178.699	50	248	0	0	mushroom	1040	248	0	stimuli\mushroom\mushroom_08n.jpg	7	-1	0	0	mushroom_08n.jpg	0	0.0	0	157.055170715554	157.105159012717	0.0499882971635088	178699
178.799	50	249	0	0	cake	237	249	0	stimuli\cake\cake_02s.jpg	1	-1	0	0	cake_02s.jpg	0	0.0	0	157.15518217463998	157.20514340885	0.04996123421005901	178799
178.899	50	250	0	0	camcorder	244	250	0	stimuli\camcorder\camcorder_09n.jpg	8	-1	0	0	camcorder_09n.jpg	0	0.0	0	157.255186319351	157.305161694589	0.049975375237409005	178899
178.999	50	251	0	0	headdress	763	251	0	stimuli\headdress\headdress_01b.jpg	0	-1	0	0	headdress_01b.jpg	0	0.0	0	157.355193389871	157.405172666011	0.0499792761402205	178999
179.099	50	252	0	0	board_game	153	252	0	stimuli\board_game\board_game_10s.jpg	9	-1	0	0	board_game_10s.jpg	0	0.0	0	157.455189732718	157.505169740296	0.0499800075776875	179099
179.199	50	253	0	0	bird	128	253	0	stimuli\bird\bird_01b.jpg	0	-1	0	0	bird_01b.jpg	0	0.0	0	157.555189976527	157.605175104109	0.0499851275817491	179199
179.299	50	254	0	0	powder	1236	254	0	stimuli\powder\powder_08s.jpg	7	-1	0	1	powder_08s.jpg	0	0.0	0	157.655177298409	157.705158525088	0.0499812266789377	179299
179.399	50	255	0	0	wolf	1831	255	0	stimuli\wolf\wolf_10s.jpg	9	-1	0	0	wolf_10s.jpg	0	0.0	0	157.755199728941	157.80515145458	0.0499517256394029	179399
179.499	50	256	0	0	twig	1740	256	0	stimuli\twig\twig_12s.jpg	11	-1	0	0	twig_12s.jpg	0	0.0	0	157.855199728918	157.90518412512	0.0499843962024897	179499
179.599	50	257	0	0	chili	327	257	0	stimuli\chili\chili_06s.jpg	5	-1	0	0	chili_06s.jpg	1	0.34190600650617897	1	157.955184612714	158.005167789874	0.0499831771594472	179599
179.699	50	258	0	0	yolk	1850	258	0	stimuli\yolk\yolk_02s.jpg	1	-1	0	0	yolk_02s.jpg	0	0.0	0	158.055190464132	158.105186075554	0.0499956114217639	179699
179.799	50	259	0	0	dryer	524	259	0	stimuli\dryer\dryer_10s.jpg	9	-1	0	0	dryer_10s.jpg	1	0.5045831342577	1	158.155215088918	158.205186563195	0.0499714742763899	179799
179.899	50	260	0	0	seal	1397	260	0	stimuli\seal\seal_05s.jpg	4	-1	0	0	seal_05s.jpg	0	0.0	0	158.25521606416402	158.305196071742	0.0499800075776875	179899
179.999	50	261	0	0	life_jacket	924	261	0	stimuli\life_jacket\life_jacket_10s.jpg	9	-1	0	0	life_jacket_10s.jpg	0	0.0	0	158.35521216318	158.405195827945	0.0499836647650227	179999
180.099	50	262	0	0	incubator	827	262	0	stimuli\incubator\incubator_07s.jpg	6	-1	0	0	incubator_07s.jpg	0	0.0	0	158.455216064176	158.505178273655	0.0499622094794177	180099
180.199	50	263	0	0	retainer	1303	263	0	stimuli\retainer\retainer_07s.jpg	6	-1	0	0	retainer_07s.jpg	0	0.0	0	158.555220208946	158.60519899748002	0.049978788534645	180199
180.299	50	264	0	0	mongoose	1016	264	0	stimuli\mongoose\mongoose_03s.jpg	2	-1	0	0	mongoose_03s.jpg	0	0.0	0	158.655225816532	158.705184856546	0.0499590400140733	180299
180.399	50	265	0	0	spider	1513	265	0	stimuli\spider\spider_11s.jpg	10	-1	0	0	spider_11s.jpg	0	0.0	0	158.755228254653	158.805164376507	0.0499361218535341	180399
180.499	50	266	0	0	net	1057	266	0	stimuli\net\net_09s.jpg	8	-1	0	0	net_09s.jpg	0	0.0	0	158.855227035587	158.90519729081998	0.0499702552333474	180499
180.599	50	267	0	0	cocktail	374	267	0	stimuli\cocktail\cocktail_06s.jpg	5	-1	0	0	cocktail_06s.jpg	0	0.0	0	158.955219721305	159.005201679363	0.0499819580581971	180599
180.699	50	268	0	0	crystal1	453	268	0	stimuli\crystal1\crystal1_05s.jpg	4	-1	0	0	crystal1_05s.jpg	0	0.0	0	159.055224597512	159.10521045653098	0.0499858590192162	180699
180.799	50	269	0	0	hairdryer	735	269	0	stimuli\hairdryer\hairdryer_05s.jpg	4	-1	0	0	hairdryer_05s.jpg	0	0.0	0	159.155231180368	159.205207286985	0.0499761066166684	180799
180.899	50	270	0	0	hookah	795	270	0	stimuli\hookah\hookah_02s.jpg	1	-1	0	0	hookah_02s.jpg	0	0.0	0	159.255226548004	159.305210456543	0.0499839085387066	180899
180.999	50	271	0	0	plate	1197	271	0	stimuli\plate\plate_01b.jpg	0	-1	0	0	plate_01b.jpg	0	0.0	0	159.35523239942302	159.405215576524	0.0499831771012396	180999
181.099	50	272	0	0	drain	515	272	0	stimuli\drain\drain_10s.jpg	9	-1	0	0	drain_10s.jpg	0	0.0	0	159.455220208911	159.50518948893298	0.0499692800221965	181099
181.199	50	273	0	0	corset	418	273	0	stimuli\corset\corset_02s.jpg	1	-1	0	0	corset_02s.jpg	0	0.0	0	159.55521679558998	159.605194121308	0.0499773257179186	181199
181.299	50	274	0	0	hook2	794	274	0	stimuli\hook2\hook2_11s.jpg	10	-1	0	0	hook2_11s.jpg	0	0.0	0	159.655219233711	159.705197778414	0.0499785447027534	181299
181.399	50	275	0	0	baseball	78	275	0	stimuli\baseball\baseball_01b.jpg	0	-1	0	0	baseball_01b.jpg	0	0.0	0	159.755221671774	159.805197778449	0.0499761066748761	181399
181.499	50	276	0	0	exerciser	561	276	0	stimuli\exerciser\exerciser_09s.jpg	8	-1	0	0	exerciser_09s.jpg	0	0.0	0	159.855225816544	159.905238007021	0.0500121904769912	181499
181.599	50	277	0	0	mosquito_net	1021	277	0	stimuli\mosquito_net\mosquito_net_09s.jpg	8	-1	0	0	mosquito_net_09s.jpg	0	0.0	0	159.955257755588	160.005220940337	0.0499631847487763	181599
181.699	50	278	0	0	mustard	1044	278	0	stimuli\mustard\mustard_04s.jpg	3	-1	0	1	mustard_04s.jpg	0	0.0	0	160.055258974666	160.105216795579	0.0499578209128231	181699
181.799	50	279	0	0	cufflink	458	279	0	stimuli\cufflink\cufflink_10s.jpg	9	-1	0	0	cufflink_10s.jpg	0	0.0	0	160.15522874228202	160.20520826225402	0.049979519972112	181799
181.899	50	280	0	0	headband	762	280	0	stimuli\headband\headband_09s.jpg	8	-1	0	0	headband_09s.jpg	0	0.0	0	160.255231180345	160.305211675586	0.0499804952414706	181899
181.999	50	281	0	0	fruit	645	281	0	stimuli\fruit\fruit_02s.jpg	1	-1	0	0	fruit_02s.jpg	1	0.34188016265397897	1	160.355237519427	160.40521533275	0.049977813323494	181999
182.099	50	282	0	0	roller	1324	282	0	stimuli\roller\roller_05s.jpg	4	-1	0	0	roller_05s.jpg	0	0.0	0	160.455235081317	160.505217283207	0.0499822018900886	182099
182.199	50	283	0	0	filing_cabinet	585	283	0	stimuli\filing_cabinet\filing_cabinet_09s.jpg	8	-1	0	0	filing_cabinet_09s.jpg	0	0.0	0	160.555241176568	160.605220208934	0.0499790323665366	182199
182.299	50	284	0	0	eyedropper	566	284	0	stimuli\eyedropper\eyedropper_05s.jpg	4	-1	0	0	eyedropper_05s.jpg	0	0.0	0	160.655241420376	160.705220940348	0.049979519972112	182299
182.399	50	285	0	0	ping-pong_table	1184	285	0	stimuli\ping-pong_table\ping-pong_table_03s.jpg	2	-1	0	0	ping-pong_table_03s.jpg	0	0.0	0	160.755244589876	160.80525726801702	0.0500126781407744	182399
182.499	50	286	0	0	hay	761	286	0	stimuli\hay\hay_06s.jpg	5	-1	0	0	hay_06s.jpg	0	0.0	0	160.855282624194	160.905282136577	0.049999512382782996	182499
182.599	50	287	0	0	needle	1055	287	0	stimuli\needle\needle_08s.jpg	7	-1	0	0	needle_08s.jpg	0	0.0	0	160.955281161354	161.005267264205	0.0499861028511077	182599
182.699	50	288	0	0	urinal	1748	288	0	stimuli\urinal\urinal_01b.jpg	0	-1	0	0	urinal_01b.jpg	0	0.0	0	161.055287256604	161.105252391775	0.0499651351710781	182699
182.799	50	289	0	0	kiwi	876	289	0	stimuli\kiwi\kiwi_01b.jpg	0	-1	0	0	kiwi_01b.jpg	0	0.0	0	161.15527774801	161.205269702303	0.0499919542926364	182799
182.899	50	290	0	0	furnace	651	290	0	stimuli\furnace\furnace_09s.jpg	8	-1	0	0	furnace_09s.jpg	0	0.0	0	161.255279698467	161.30527165276	0.0499919542926364	182899
182.999	50	291	0	0	tadpole	1614	291	0	stimuli\tadpole\tadpole_03s.jpg	2	-1	0	0	tadpole_03s.jpg	0	0.0	0	161.35529262037	161.405279698491	0.0499870781204663	182999
183.099	50	292	0	0	patty	1126	292	0	stimuli\patty\patty_09s.jpg	8	-1	0	0	patty_09s.jpg	0	0.0	0	161.45529774040898	161.505279454694	0.0499817142845131	183099
183.199	50	293	0	0	generator	671	293	0	stimuli\generator\generator_11s.jpg	10	-1	0	0	generator_11s.jpg	0	0.0	0	161.555282624206	161.605282624194	0.0499999999883585	183199
183.299	50	294	0	0	shoulder	1431	294	0	stimuli\shoulder\shoulder_04s.jpg	3	-1	0	0	shoulder_04s.jpg	0	0.0	0	161.655298471858	161.705270677514	0.0499722056556493	183299
183.399	50	295	0	0	cruise_ship	450	295	0	stimuli\cruise_ship\cruise_ship_09s.jpg	8	-1	0	0	cruise_ship_09s.jpg	0	0.0	0	161.75530651753098	161.805268727068	0.0499622095376253	183399
183.499	50	296	0	0	sand	1351	296	0	stimuli\sand\sand_10s.jpg	9	-1	0	0	sand_10s.jpg	0	0.0	0	161.855307736609	161.905286768975	0.0499790323665366	183499
183.599	50	297	0	0	torch	1683	297	0	stimuli\torch\torch_08s.jpg	7	-1	0	0	torch_08s.jpg	0	0.0	0	161.95528628135798	162.00527579750602	0.0499895161483437	183599
183.699	50	298	0	0	playing_card	1199	298	0	stimuli\playing_card\playing_card_09s.jpg	8	-1	0	0	playing_card_09s.jpg	0	0.0	0	162.05530700518298	162.105285306112	0.0499783009290695	183699
183.799	50	299	0	0	horse	798	299	0	stimuli\horse\horse_12s.jpg	11	-1	0	0	horse_12s.jpg	0	0.0	0	162.155310906121	162.20528676896402	0.0499758628429845	183799
183.899	50	300	0	0	chopsticks	339	300	0	stimuli\chopsticks\chopsticks_09s.jpg	8	-1	0	0	chopsticks_09s.jpg	0	0.0	0	162.255300909921	162.305293108046	0.0499921981245279	183899
183.999	50	301	0	0	glue	681	301	0	stimuli\glue\glue_09s.jpg	8	-1	0	0	glue_09s.jpg	0	0.0	0	162.35531066229998	162.40529774042102	0.0499870781204663	183999
184.099	50	302	0	0	viewfinder	1763	302	0	stimuli\viewfinder\viewfinder_05s.jpg	4	-1	0	0	viewfinder_05s.jpg	0	0.0	0	162.455313831859	162.505298471835	0.0499846399761736	184099
184.199	50	303	0	0	chime	328	303	0	stimuli\chime\chime_11s.jpg	10	-1	0	0	chime_11s.jpg	0	0.0	0	162.555301397573	162.605298715644	0.0499973180703819	184199
184.299	50	304	0	0	hawk	760	304	0	stimuli\hawk\hawk_06s.jpg	5	-1	0	0	hawk_06s.jpg	0	0.0	0	162.655320658523	162.705303591851	0.0499829333275557	184299
184.399	50	305	0	0	pot	1230	305	0	stimuli\pot\pot_03s.jpg	2	-1	0	0	pot_03s.jpg	0	0.0	0	162.755320902332	162.805304079433	0.0499831771012396	184399
184.499	50	306	0	0	mold1	1012	306	0	stimuli\mold1\mold1_04s.jpg	3	-1	0	0	mold1_04s.jpg	0	0.0	0	162.855304323253	162.905306517554	0.0500021943007596	184499
184.599	50	307	0	0	air_pump	6	307	0	stimuli\air_pump\air_pump_02s.jpg	1	-1	0	0	air_pump_02s.jpg	0	0.0	0	162.955330654688	163.0053074928	0.0499768381123431	184599
184.699	50	308	0	0	sickle	1441	308	0	stimuli\sickle\sickle_03s.jpg	2	-1	0	0	sickle_03s.jpg	0	0.0	0	163.055333336641	163.105315294699	0.0499819580581971	184699
195.283	50	309	0	0	hobbyhorse	782	0	1	stimuli\hobbyhorse\hobbyhorse_01b.jpg	0	-1	1	0	hobbyhorse_01b.jpg	0	0.0	0	173.638955421862	173.688934941834	0.049979519972112	195283
195.383	50	310	0	0	album	11	1	1	stimuli\album\album_11s.jpg	10	-1	1	0	album_11s.jpg	0	0.0	0	173.738959566632	173.788937867561	0.0499783009290695	195383
195.483	50	311	0	0	stopwatch	1562	2	1	stimuli\stopwatch\stopwatch_10s.jpg	9	-1	1	0	stopwatch_10s.jpg	0	0.0	0	173.838962248527	173.888924701838	0.0499624533113092	195483
195.583	50	312	0	0	toe	1668	3	1	stimuli\toe\toe_11s.jpg	10	-1	1	0	toe_11s.jpg	0	0.0	0	173.93893421045502	173.98891665611902	0.0499824456637725	195583
195.683	50	313	0	0	wrist	1842	4	1	stimuli\wrist\wrist_10s.jpg	9	-1	1	0	wrist_10s.jpg	0	0.0	0	174.038943231397	174.088920557057	0.0499773256597109	195683
195.783	50	314	0	0	otter	1085	5	1	stimuli\otter\otter_03s.jpg	2	-1	1	0	otter_03s.jpg	0	0.0	0	174.138954690425	174.18892031326	0.0499656228348613	195783
195.883	50	315	0	0	candy	255	6	1	stimuli\candy\candy_06s.jpg	5	-1	1	0	candy_06s.jpg	0	0.0	0	174.238959079026	174.288927871385	0.0499687923584133	195883
195.983	50	316	0	0	mitten	1008	7	1	stimuli\mitten\mitten_12s.jpg	11	-1	1	0	mitten_12s.jpg	0	0.0	0	174.338959322835	174.388936648495	0.0499773256597109	195983
196.083	50	317	0	0	fossil	636	8	1	stimuli\fossil\fossil_03s.jpg	2	-1	1	0	fossil_03s.jpg	0	0.0	0	174.43898955523	174.488958347589	0.0499687923584133	196083
196.183	50	318	0	0	dragonfly	514	9	1	stimuli\dragonfly\dragonfly_07s.jpg	6	-1	1	0	dragonfly_07s.jpg	0	0.0	0	174.53898394759702	174.588973219972	0.0499892723746598	196183
196.283	50	319	0	0	stir_fry	1557	10	1	stimuli\stir_fry\stir_fry_09s.jpg	8	-1	1	0	stir_fry_09s.jpg	0	0.0	0	174.638962492347	174.68894054950198	0.0499780571553856	196283
196.383	50	320	0	0	pom-pom	1218	11	1	stimuli\pom-pom\pom-pom_07s.jpg	6	-1	1	0	pom-pom_07s.jpg	0	0.0	0	174.738956397108	174.788955178054	0.04999878094531599	196383
196.483	50	321	0	0	dumbbell	530	12	1	stimuli\dumbbell\dumbbell_11s.jpg	10	-1	1	0	dumbbell_11s.jpg	0	0.0	0	174.838992968551	174.88897126948	0.0499783009290695	196483
196.583	50	322	0	0	tarantula	1626	13	1	stimuli\tarantula\tarantula_10s.jpg	9	-1	1	0	tarantula_10s.jpg	0	0.0	0	174.938994675234	174.98897907137902	0.0499843961442821	196583
196.683	50	323	0	0	envelope	558	14	1	stimuli\envelope\envelope_03s.jpg	2	-1	1	0	envelope_03s.jpg	0	0.0	0	175.038998088567	175.08897882758203	0.0499807390151545	196683
196.783	50	324	0	0	calculator	240	15	1	stimuli\calculator\calculator_11s.jpg	10	-1	1	0	calculator_11s.jpg	0	0.0	0	175.139002233336	175.18898736091802	0.0499851275817491	196783
196.883	50	325	0	0	wheat	1805	16	1	stimuli\wheat\wheat_03n.jpg	2	-1	1	0	wheat_03n.jpg	0	0.0	0	175.239013936196	175.28898541047198	0.0499714742763899	196883
196.983	50	326	0	0	boomerang	168	17	1	stimuli\boomerang\boomerang_07s.jpg	6	-1	1	0	boomerang_07s.jpg	0	0.0	0	175.33900515904	175.38897614571	0.0499709866708145	196983
197.083	50	327	0	0	marshmallow	977	18	1	stimuli\marshmallow\marshmallow_01b.jpg	0	-1	1	0	marshmallow_01b.jpg	0	0.0	0	175.438991749485	175.488989799051	0.0499980495660566	197083
197.183	50	328	0	0	chinaware	331	19	1	stimuli\chinaware\chinaware_03s.jpg	2	-1	1	0	chinaware_03s.jpg	0	0.0	0	175.53901734954	175.589000282867	0.0499829333275557	197183
197.283	50	329	0	0	birdbath	129	20	1	stimuli\birdbath\birdbath_10s.jpg	9	-1	1	1	birdbath_10s.jpg	0	0.0	0	175.639013204782	175.68897858378503	0.0499653790029697	197283
197.383	50	330	0	0	lightbulb	927	21	1	stimuli\lightbulb\lightbulb_05s.jpg	4	-1	1	0	lightbulb_05s.jpg	0	0.0	0	175.738989555219	175.788970538066	0.0499809828470461	197383
197.483	50	331	0	0	spear	1510	22	1	stimuli\spear\spear_04s.jpg	3	-1	1	0	spear_04s.jpg	0	0.0	0	175.839019543841	175.889001745731	0.0499822018900886	197483
197.583	50	332	0	0	fishbowl	601	23	1	stimuli\fishbowl\fishbowl_01b.jpg	0	-1	1	0	fishbowl_01b.jpg	0	0.0	0	175.93902051902802	175.98900394001998	0.0499834209913388	197583
197.683	50	333	0	0	glasses	678	24	1	stimuli\glasses\glasses_07s.jpg	6	-1	1	0	glasses_07s.jpg	0	0.0	0	176.03902710188402	176.089006621914	0.0499795200303197	197683
197.783	50	334	0	0	seed	1401	25	1	stimuli\seed\seed_11s.jpg	10	-1	1	0	seed_11s.jpg	1	0.541907225502655	1	176.139015399036	176.189008816204	0.0499934171675704	197783
197.883	50	335	0	0	okra	1074	26	1	stimuli\okra\okra_04s.jpg	3	-1	1	0	okra_04s.jpg	0	0.0	0	176.23903197812598	176.289007353305	0.0499753751792014	197883
197.983	50	336	0	0	diskette	493	27	1	stimuli\diskette\diskette_02s.jpg	1	-1	1	0	diskette_02s.jpg	0	0.0	0	176.33900686568802	176.38898516667498	0.0499783009872772	197983
198.083	50	337	0	0	tripod	1714	28	1	stimuli\tripod\tripod_04s.jpg	3	-1	1	0	tripod_04s.jpg	0	0.0	0	176.43900808476602	176.488996869535	0.0499887847690843	198083
198.183	50	338	0	0	ratchet	1286	29	1	stimuli\ratchet\ratchet_08s.jpg	7	-1	1	0	ratchet_08s.jpg	0	0.0	0	176.539017837145	176.588993456156	0.0499756190110929	198183
198.283	50	339	0	0	coaster	368	30	1	stimuli\coaster\coaster_01b.jpg	0	-1	1	0	coaster_01b.jpg	0	0.0	0	176.639013204782	176.68899516284	0.0499819580581971	198283
198.383	50	340	0	0	lightning_bug	929	31	1	stimuli\lightning_bug\lightning_bug_01s.jpg	0	-1	1	0	lightning_bug_01s.jpg	0	0.0	0	176.739010522841	176.78898906760202	0.0499785447609611	198383
198.483	50	341	0	0	eagle	537	32	1	stimuli\eagle\eagle_01b.jpg	0	-1	1	0	eagle_01b.jpg	0	0.0	0	176.839045387635	176.889011985739	0.0499665981042199	198483
198.583	50	342	0	0	radiator	1272	33	1	stimuli\radiator\radiator_12s.jpg	11	-1	1	0	radiator_12s.jpg	0	0.0	0	176.939048557135	176.98903100285702	0.0499824457219802	198583
198.683	50	343	0	0	heater	772	34	1	stimuli\heater\heater_02s.jpg	1	-1	1	0	heater_02s.jpg	0	0.0	0	177.039060991432	177.089031734271	0.0499707428389229	198683
198.783	50	344	0	0	bolo_tie	157	35	1	stimuli\bolo_tie\bolo_tie_11s.jpg	10	-1	1	0	bolo_tie_11s.jpg	0	0.0	0	177.13905806571702	177.18903734191602	0.0499792761984281	198783
198.883	50	345	0	0	mulch	1038	36	1	stimuli\mulch\mulch_01b.jpg	0	-1	1	0	mulch_01b.jpg	0	0.0	0	177.239045387658	177.289041730517	0.0499963428592309	198883
198.983	50	346	0	0	kettle	868	37	1	stimuli\kettle\kettle_04n.jpg	3	-1	1	0	kettle_04n.jpg	0	0.0	0	177.339060747647	177.389041730494	0.0499809828470461	198983
199.083	50	347	0	0	mantle	969	38	1	stimuli\mantle\mantle_03s.jpg	2	-1	1	0	mantle_03s.jpg	0	0.0	0	177.439063917147	177.48903100285702	0.0499670857097954	199083
199.183	50	348	0	0	highlighter	778	39	1	stimuli\highlighter\highlighter_05s.jpg	4	-1	1	0	highlighter_05s.jpg	0	0.0	0	177.539068061917	177.589050507639	0.0499824457219802	199183
199.283	50	349	0	0	paper	1112	40	1	stimuli\paper\paper_10s.jpg	9	-1	1	0	paper_10s.jpg	0	0.0	0	177.63905172667	177.68905123905301	0.049999512382782996	199283
199.383	50	350	0	0	polo_shirt	1216	41	1	stimuli\polo_shirt\polo_shirt_11s.jpg	10	-1	1	0	polo_shirt_11s.jpg	0	0.0	0	177.739072206721	177.78905294573602	0.0499807390151545	199383
199.483	50	351	0	0	face_mask	570	42	1	stimuli\face_mask\face_mask_03s.jpg	2	-1	1	0	face_mask_03s.jpg	0	0.0	0	177.839073425741	177.88904099905602	0.0499675733153708	199483
199.583	50	352	0	0	cross	443	43	1	stimuli\cross\cross_08s.jpg	7	-1	1	0	cross_08s.jpg	0	0.0	0	177.939075863862	177.98905830952597	0.0499824456637725	199583
199.683	50	353	0	0	bubble	207	44	1	stimuli\bubble\bubble_11s.jpg	10	-1	1	0	bubble_11s.jpg	0	0.0	0	178.039080008632	178.08905952860403	0.049979519972112	199683
199.783	50	354	0	0	bullet	216	45	1	stimuli\bullet\bullet_07s.jpg	6	-1	1	0	bullet_07s.jpg	0	0.0	0	178.139087322925	178.189045875275	0.0499585523502901	199783
199.883	50	355	0	0	ivy	834	46	1	stimuli\ivy\ivy_10s.jpg	9	-1	1	0	ivy_10s.jpg	0	0.0	0	178.239090248593	178.289065867662	0.0499756190693006	199883
199.983	50	356	0	0	lasagna	898	47	1	stimuli\lasagna\lasagna_04s.jpg	3	-1	1	0	lasagna_04s.jpg	0	0.0	0	178.339085128624	178.389057578112	0.0499724494875409	199983
200.083	50	357	0	0	vest	1759	48	1	stimuli\vest\vest_10s.jpg	9	-1	1	0	vest_10s.jpg	0	0.0	0	178.43908951716702	178.48907391337	0.0499843962024897	200083
200.183	50	358	0	0	water_heater	1791	49	1	stimuli\water_heater\water_heater_02s.jpg	1	-1	1	0	water_heater_02s.jpg	0	0.0	0	178.539091955288	178.58905270195098	0.0499607466626912	200183
200.283	50	359	0	0	purse	1259	50	1	stimuli\purse\purse_09s.jpg	8	-1	1	0	purse_09s.jpg	0	0.0	0	178.63907074387	178.68905294576	0.0499822018900886	200283
200.383	50	360	0	0	christmas_tree	341	51	1	stimuli\christmas_tree\christmas_tree_12s.jpg	11	-1	1	0	christmas_tree_12s.jpg	0	0.0	0	178.739077570499	178.78905294573602	0.049975375237409005	200383
200.483	50	361	0	0	enchilada	556	52	1	stimuli\enchilada\enchilada_03s.jpg	2	-1	1	0	enchilada_03s.jpg	0	0.0	0	178.839070987655	178.889051970502	0.0499809828470461	200483
200.583	50	362	0	0	dreidel	517	53	1	stimuli\dreidel\dreidel_02s.jpg	1	-1	1	0	dreidel_02s.jpg	0	0.0	0	178.939074157155	178.98905879718998	0.0499846400343813	200583
200.683	50	363	0	0	playpen	1200	54	1	stimuli\playpen\playpen_02s.jpg	1	-1	1	0	playpen_02s.jpg	0	0.0	0	179.039080252405	179.08906391717	0.0499836647650227	200683
200.783	50	364	0	0	terrarium	1644	55	1	stimuli\terrarium\terrarium_10s.jpg	9	-1	1	0	terrarium_10s.jpg	0	0.0	0	179.139089761011	179.189062941936	0.0499731809250079	200783
200.883	50	365	0	0	cummerbund	459	56	1	stimuli\cummerbund\cummerbund_08s.jpg	7	-1	1	0	cummerbund_08s.jpg	0	0.0	0	179.23908878577598	179.289074644796	0.0499858590192162	200883
200.983	50	366	0	0	bib	122	57	1	stimuli\bib\bib_06s.jpg	5	-1	1	0	bib_06s.jpg	0	0.0	0	179.339085128624	179.38906708668202	0.0499819580581971	200983
201.083	50	367	0	0	rope	1332	58	1	stimuli\rope\rope_09s.jpg	8	-1	1	0	rope_09s.jpg	0	0.0	0	179.439090004831	179.489071231452	0.049981226620730006	201083
201.183	50	368	0	0	flute	620	59	1	stimuli\flute\flute_09s.jpg	8	-1	1	0	flute_09s.jpg	0	0.0	0	179.539093418163	179.58907196286597	0.0499785447027534	201183
201.283	50	369	0	0	porcupine	1226	60	1	stimuli\porcupine\porcupine_08s.jpg	7	-1	1	0	porcupine_08s.jpg	0	0.0	0	179.63909536862	179.68907488859298	0.049979519972112	201283
201.383	50	370	0	0	vial	1760	61	1	stimuli\vial\vial_10s.jpg	9	-1	1	0	vial_10s.jpg	0	0.0	0	179.739102926746	179.789080496237	0.0499775694916025	201383
201.483	50	371	0	0	napkin	1050	62	1	stimuli\napkin\napkin_05s.jpg	4	-1	1	0	napkin_05s.jpg	0	0.0	0	179.83911170385502	179.889112435281	0.0500007314258255	201483
201.583	50	372	0	0	chest2	320	63	1	stimuli\chest2\chest2_05s.jpg	4	-1	1	0	chest2_05s.jpg	0	0.0	0	179.939131208637	179.98911462957	0.0499834209331311	201583
201.683	50	373	0	0	dessert	481	64	1	stimuli\dessert\dessert_03s.jpg	2	-1	1	0	dessert_03s.jpg	0	0.0	0	180.03913413436402	180.089097075281	0.0499629409168847	201683
201.783	50	374	0	0	megaphone	993	65	1	stimuli\megaphone\megaphone_07s.jpg	6	-1	1	0	megaphone_07s.jpg	0	0.0	0	180.139119505766	180.1891173115	0.049997805734165006	201783
201.883	50	375	0	0	squid	1528	66	1	stimuli\squid\squid_03s.jpg	2	-1	1	0	squid_03s.jpg	0	0.0	0	180.239145593427	180.28912170004298	0.0499761066166684	201883
201.983	50	376	0	0	kilt	872	67	1	stimuli\kilt\kilt_03s.jpg	2	-1	1	0	kilt_03s.jpg	0	0.0	0	180.33912706386798	180.389123162895	0.0499960990273394	201983
202.083	50	377	0	0	gasket	661	68	1	stimuli\gasket\gasket_08s.jpg	7	-1	1	0	gasket_08s.jpg	0	0.0	0	180.43912170006698	180.48912730766497	0.0500056075979955	202083
202.183	50	378	0	0	robe	1317	69	1	stimuli\robe\robe_06s.jpg	5	-1	1	0	robe_06s.jpg	0	0.0	0	180.539151444857	180.589127551473	0.0499761066166684	202183
202.283	50	379	0	0	pepperoni	1153	70	1	stimuli\pepperoni\pepperoni_09s.jpg	8	-1	1	0	pepperoni_09s.jpg	0	0.0	0	180.639149006747	180.68912730767602	0.0499783009290695	202283
202.383	50	380	0	0	potholder	1232	71	1	stimuli\potholder\potholder_05s.jpg	4	-1	1	0	potholder_05s.jpg	0	0.0	0	180.739132671501	180.789129989571	0.0499973180703819	202383
202.483	50	381	0	0	wig	1816	72	1	stimuli\wig\wig_04s.jpg	3	-1	1	0	wig_04s.jpg	0	0.0	0	180.839134134352	180.889129502	0.04999536764808	202483
202.583	50	382	0	0	wing	1827	73	1	stimuli\wing\wing_08s.jpg	7	-1	1	0	wing_08s.jpg	0	0.0	0	180.939154858177	180.98913925438	0.0499843962024897	202583
202.683	50	383	0	0	flag	605	74	1	stimuli\flag\flag_02s.jpg	1	-1	1	0	flag_02s.jpg	0	0.0	0	181.039160953427	181.08913779148102	0.0499768380541354	202683
202.783	50	384	0	0	sword	1602	75	1	stimuli\sword\sword_08s.jpg	7	-1	1	0	sword_08s.jpg	0	0.0	0	181.13915875915	181.189140229602	0.0499814704526216	202783
202.883	50	385	0	0	wine_cooler	1825	76	1	stimuli\wine_cooler\wine_cooler_02s.jpg	1	-1	1	0	wine_cooler_02s.jpg	0	0.0	0	181.239164122962	181.289126332442	0.0499622094794177	202883
202.983	50	386	0	0	anchor	21	77	1	stimuli\anchor\anchor_03n.jpg	2	-1	1	0	anchor_03n.jpg	0	0.0	0	181.339165341982	181.38914778770402	0.0499824457219802	202983
203.083	50	387	0	0	tuba	1723	78	1	stimuli\tuba\tuba_07s.jpg	6	-1	1	0	tuba_07s.jpg	0	0.0	0	181.43916753627101	181.489149981993	0.0499824457219802	203083
203.183	50	388	0	0	hockey_stick	783	79	1	stimuli\hockey_stick\hockey_stick_12s.jpg	11	-1	1	0	hockey_stick_12s.jpg	0	0.0	0	181.53914754389598	181.589122187695	0.04997464379994201	203183
203.283	50	389	0	0	soy_sauce	1500	80	1	stimuli\soy_sauce\soy_sauce_10s.jpg	9	-1	1	0	soy_sauce_10s.jpg	0	0.0	0	181.63914218009398	181.689125601028	0.0499834209331311	203283
203.383	50	390	0	0	hose	800	81	1	stimuli\hose\hose_07s.jpg	6	-1	1	0	hose_07s.jpg	0	0.0	0	181.739149006724	181.78913096483998	0.0499819581164047	203383
203.483	50	391	0	0	eyepiece	568	82	1	stimuli\eyepiece\eyepiece_09s.jpg	8	-1	1	0	eyepiece_09s.jpg	0	0.0	0	181.839150469634	181.88913023338	0.0499797637457959	203483
203.583	50	392	0	0	sailboat	1347	83	1	stimuli\sailboat\sailboat_09s.jpg	8	-1	1	0	sailboat_09s.jpg	0	0.0	0	181.93915144482202	181.989132183895	0.0499807390733622	203583
203.683	50	393	0	0	coffin	383	84	1	stimuli\coffin\coffin_07s.jpg	6	-1	1	0	coffin_07s.jpg	0	0.0	0	182.03915437054798	182.089132915309	0.0499785447609611	203683
203.783	50	394	0	0	bike	123	85	1	stimuli\bike\bike_04s.jpg	3	-1	1	0	bike_04s.jpg	0	0.0	0	182.139158271544	182.18913730391102	0.0499790323665366	203783
203.883	50	395	0	0	wire	1828	86	1	stimuli\wire\wire_09s.jpg	8	-1	1	0	wire_09s.jpg	0	0.0	0	182.239165342005	182.28917387535301	0.0500085333478637	203883
203.983	50	396	0	0	flyswatter	623	87	1	stimuli\flyswatter\flyswatter_06s.jpg	5	-1	1	0	flyswatter_06s.jpg	0	0.0	0	182.33919167343998	182.389176313416	0.0499846399761736	203983
204.083	50	397	0	0	manatee	964	88	1	stimuli\manatee\manatee_07s.jpg	6	-1	1	0	manatee_07s.jpg	0	0.0	0	182.439195574378	182.489175582014	0.0499800076358952	204083
204.183	50	398	0	0	television	1641	89	1	stimuli\television\television_09s.jpg	8	-1	1	0	television_09s.jpg	0	0.0	0	182.53919606201802	182.58917728869702	0.0499812266789377	204183
204.283	50	399	0	0	daisy	470	90	1	stimuli\daisy\daisy_05s.jpg	4	-1	1	0	daisy_05s.jpg	0	0.0	0	182.639198743913	182.689168755314	0.0499700114014558	204283
204.383	50	400	0	0	bead	100	91	1	stimuli\bead\bead_06s.jpg	5	-1	1	0	bead_06s.jpg	0	0.0	0	182.739201182034	182.78918216488097	0.0499809828470461	204383
204.483	50	401	0	0	doorhandle	508	92	1	stimuli\doorhandle\doorhandle_06s.jpg	5	-1	1	0	doorhandle_06s.jpg	0	0.0	0	182.839176313428	182.889156321064	0.0499800076358952	204483
204.583	50	402	0	0	wok	1830	93	1	stimuli\wok\wok_06s.jpg	5	-1	1	0	wok_06s.jpg	0	0.0	0	182.939196793421	182.98918411531503	0.0499873218941502	204583
204.683	50	403	0	0	cellphone	293	94	1	stimuli\cellphone\cellphone_05s.jpg	4	-1	1	0	cellphone_05s.jpg	0	0.0	0	183.039203620108	183.089166317252	0.0499626971432008	204683
204.783	50	404	0	0	cannon	260	95	1	stimuli\cannon\cannon_05s.jpg	4	-1	1	0	cannon_05s.jpg	0	0.0	0	183.139185821987	183.189168511541	0.0499826895538718	204783
204.883	50	405	0	0	cracker	429	96	1	stimuli\cracker\cracker_10s.jpg	9	-1	1	0	cracker_10s.jpg	0	0.0	0	183.239189966756	183.289167536306	0.0499775695498101	204883
204.983	50	406	0	0	gem	670	97	1	stimuli\gem\gem_06s.jpg	5	-1	1	0	gem_06s.jpg	0	0.0	0	183.339191429608	183.389168755326	0.0499773257179186	204983
205.083	50	407	0	0	thermos	1647	98	1	stimuli\thermos\thermos_03s.jpg	2	-1	1	0	thermos_03s.jpg	0	0.0	0	183.439193380123	183.48917680105703	0.0499834209331311	205083
205.183	50	408	0	0	dresser	519	99	1	stimuli\dresser\dresser_01b.jpg	0	-1	1	0	dresser_01b.jpg	0	0.0	0	183.539201425854	183.58919728105	0.0499958551954478	205183
205.283	50	409	0	0	bucket	209	100	1	stimuli\bucket\bucket_12s.jpg	11	-1	1	0	bucket_12s.jpg	0	0.0	0	183.639216054406	183.689201669651	0.0499856152455322	205283
205.383	50	410	0	0	cage	236	101	1	stimuli\cage\cage_01b.jpg	0	-1	1	0	cage_01b.jpg	0	0.0	0	183.739226538222	183.78920045058499	0.0499739123624749	205383
205.483	50	411	0	0	paintbrush	1097	102	1	stimuli\paintbrush\paintbrush_11s.jpg	10	-1	1	0	paintbrush_11s.jpg	0	0.0	0	183.839220930589	183.889207521046	0.0499865904566832	205483
205.583	50	412	0	0	cup	460	103	1	stimuli\cup\cup_08s.jpg	7	-1	1	0	cup_08s.jpg	0	0.0	0	183.93921093439	183.989189966756	0.0499790323665366	205583
205.683	50	413	0	0	trap	1702	104	1	stimuli\trap\trap_10s.jpg	9	-1	1	0	trap_10s.jpg	0	0.0	0	184.039241654449	184.089218248671	0.0499765942222439	205683
205.783	50	414	0	0	coin	385	105	1	stimuli\coin\coin_08s.jpg	7	-1	1	0	coin_08s.jpg	0	0.0	0	184.13924067915698	184.189221174398	0.0499804952414706	205783
205.883	50	415	0	0	periscope	1155	106	1	stimuli\periscope\periscope_04s.jpg	3	-1	1	0	periscope_04s.jpg	0	0.0	0	184.239240191586	184.289224100125	0.0499839085387066	205883
205.983	50	416	0	0	barrette	77	107	1	stimuli\barrette\barrette_05s.jpg	4	-1	1	0	barrette_05s.jpg	0	0.0	0	184.33924579917198	184.38919923151798	0.0499534323462285	205983
206.083	50	417	0	0	golf_cart	689	108	1	stimuli\golf_cart\golf_cart_02s.jpg	1	-1	1	0	golf_cart_02s.jpg	0	0.0	0	184.439219223917	184.489200450596	0.0499812266789377	206083
206.183	50	418	0	0	jug	853	109	1	stimuli\jug\jug_12s.jpg	11	-1	1	0	jug_12s.jpg	0	0.0	0	184.539224343956	184.58921386010502	0.0499895161483437	206183
206.283	50	419	0	0	aluminum_foil	17	110	1	stimuli\aluminum_foil\aluminum_foil_03s.jpg	2	-1	1	0	aluminum_foil_03s.jpg	0	0.0	0	184.639222881058	184.689203863905	0.0499809828470461	206283
206.383	50	420	0	0	bell_pepper	117	111	1	stimuli\bell_pepper\bell_pepper_05s.jpg	4	-1	1	0	bell_pepper_05s.jpg	0	0.0	0	184.739227757265	184.789213860116	0.0499861028511077	206383
206.483	50	421	0	0	thumbtack	1654	112	1	stimuli\thumbtack\thumbtack_11s.jpg	10	-1	1	0	thumbtack_11s.jpg	0	0.0	0	184.839228001074	184.88920995919	0.0499819581164047	206483
206.583	50	422	0	0	ear	538	113	1	stimuli\ear\ear_02s.jpg	1	-1	1	0	ear_02s.jpg	0	0.0	0	184.939268717309	184.98924604296903	0.0499773256597109	206583
206.683	50	423	0	0	petri_dish	1159	114	1	stimuli\petri_dish\petri_dish_08s.jpg	7	-1	1	0	petri_dish_08s.jpg	0	0.0	0	185.039265303989	185.089249212528	0.0499839085387066	206683
206.783	50	424	0	0	tomato_sauce	1673	115	1	stimuli\tomato_sauce\tomato_sauce_02s.jpg	1	-1	1	0	tomato_sauce_02s.jpg	0	0.0	0	185.139248481079	185.189230926801	0.0499824457219802	206783
206.883	50	425	0	0	webcam	1799	116	1	stimuli\webcam\webcam_04s.jpg	3	-1	1	0	webcam_04s.jpg	0	0.0	0	185.239277250657	185.289260183985	0.0499829333275557	206883
206.983	50	426	0	0	dumpster	533	117	1	stimuli\dumpster\dumpster_04s.jpg	3	-1	1	0	dumpster_04s.jpg	0	0.0	0	185.33927968871998	185.389258477313	0.0499787885928527	206983
207.083	50	427	0	0	shoe	1423	118	1	stimuli\shoe\shoe_07s.jpg	6	-1	1	0	shoe_07s.jpg	0	0.0	0	185.43926335347402	185.48926335346198	0.0499999999883585	207083
207.183	50	428	0	0	metronome	997	119	1	stimuli\metronome\metronome_11s.jpg	10	-1	1	0	metronome_11s.jpg	0	0.0	0	185.539286271611	185.58926457253997	0.0499783009290695	207183
207.283	50	429	0	0	saddle	1343	120	1	stimuli\saddle\saddle_09s.jpg	8	-1	1	0	saddle_09s.jpg	0	0.0	0	185.63928749063098	185.689238484891	0.0499509942601435	207283
207.383	50	430	0	0	sawhorse	1367	121	1	stimuli\sawhorse\sawhorse_01b.jpg	0	-1	1	0	sawhorse_01b.jpg	0	0.0	0	185.73929090396302	185.789274324896	0.0499834209331311	207383
207.483	50	431	0	0	pipe1	1186	122	1	stimuli\pipe1\pipe1_10s.jpg	9	-1	1	0	pipe1_10s.jpg	0	0.0	0	185.839295536338	185.889271643013	0.0499761066748761	207483
207.583	50	432	0	0	icicle	824	123	1	stimuli\icicle\icicle_12s.jpg	11	-1	1	0	icicle_12s.jpg	0	0.0	0	185.939293098287	185.989274812513	0.0499817142263055	207583
207.683	50	433	0	0	fence	575	124	1	stimuli\fence\fence_09s.jpg	8	-1	1	0	fence_09s.jpg	0	0.0	0	186.039296511619	186.089278225845	0.0499817142263055	207683
207.783	50	434	0	0	gyro	730	125	1	stimuli\gyro\gyro_09s.jpg	8	-1	1	0	gyro_09s.jpg	0	0.0	0	186.13926408492298	186.189262622036	0.0499985371134244	207783
207.883	50	435	0	0	pedal	1136	126	1	stimuli\pedal\pedal_09s.jpg	8	-1	1	0	pedal_09s.jpg	0	0.0	0	186.239271155384	186.289253601106	0.0499824457219802	207883
207.983	50	436	0	0	shoehorn	1425	127	1	stimuli\shoehorn\shoehorn_05s.jpg	4	-1	1	0	shoehorn_05s.jpg	0	0.0	0	186.339275543985	186.389254820126	0.0499792761402205	207983
208.083	50	437	0	0	cane	258	128	1	stimuli\cane\cane_06n.jpg	5	-1	1	0	cane_06n.jpg	0	0.0	0	186.439289684931	186.489289441146	0.0499997562146746	208083
208.183	50	438	0	0	sleeping_bag	1462	129	1	stimuli\sleeping_bag\sleeping_bag_11s.jpg	10	-1	1	0	sleeping_bag_11s.jpg	0	0.0	0	186.539312115405	186.58927578775902	0.0499636723543517	208183
208.283	50	439	0	0	bonnet	163	130	1	stimuli\bonnet\bonnet_12s.jpg	11	-1	1	0	bonnet_12s.jpg	0	0.0	0	186.639312603045	186.68924604298098	0.0499334399355575	208283
208.383	50	440	0	0	gramophone	699	131	1	stimuli\gramophone\gramophone_10n.jpg	9	-1	1	0	gramophone_10n.jpg	0	0.0	0	186.739287978271	186.78926506015702	0.049977081886027	208383
208.483	50	441	0	0	shortbread	1429	132	1	stimuli\shortbread\shortbread_05s.jpg	4	-1	1	0	shortbread_05s.jpg	0	0.0	0	186.839287734474	186.889269692532	0.0499819580581971	208483
208.583	50	442	0	0	ashtray	41	133	1	stimuli\ashtray\ashtray_05s.jpg	4	-1	1	0	ashtray_05s.jpg	0	0.0	0	186.939291635412	186.98930090019698	0.0500092647853307	208583
208.683	50	443	0	0	beer	113	134	1	stimuli\beer\beer_03s.jpg	2	-1	1	0	beer_03s.jpg	0	0.0	0	187.039325037331	187.089288465853	0.0499634285224602	208683
208.783	50	444	0	0	recorder	1297	135	1	stimuli\recorder\recorder_10s.jpg	9	-1	1	0	recorder_10s.jpg	0	0.0	0	187.13930894591599	187.189306020155	0.0499970742384903	208783
208.883	50	445	0	0	bulletproof_vest	218	136	1	stimuli\bulletproof_vest\bulletproof_vest_07s.jpg	6	-1	1	0	bulletproof_vest_07s.jpg	0	0.0	0	187.239340641128	187.289315772592	0.0499751314637251	208883
208.983	50	446	0	0	switch	1600	137	1	stimuli\switch\switch_02s.jpg	1	-1	1	0	switch_02s.jpg	0	0.0	0	187.33933162019798	187.389315284963	0.0499836647650227	208983
209.083	50	447	0	0	rosary	1333	138	1	stimuli\rosary\rosary_08s.jpg	7	-1	1	0	rosary_08s.jpg	0	0.0	0	187.439310408779	187.48928749066502	0.049977081886027	209083
209.183	50	448	0	0	wrapping_paper	1838	139	1	stimuli\wrapping_paper\wrapping_paper_11s.jpg	10	-1	1	0	wrapping_paper_11s.jpg	0	0.0	0	187.53933576494498	187.589317479229	0.0499817142845131	209183
209.283	50	449	0	0	jellyfish	845	140	1	stimuli\jellyfish\jellyfish_07s.jpg	6	-1	1	0	jellyfish_07s.jpg	0	0.0	0	187.639342835464	187.689321136393	0.0499783009290695	209283
209.383	50	450	0	0	panther	1106	141	1	stimuli\panther\panther_12s.jpg	11	-1	1	0	panther_12s.jpg	0	0.0	0	187.739343323046	187.78932845068599	0.0499851276399568	209383
209.483	50	451	0	0	chute	342	142	1	stimuli\chute\chute_06s.jpg	5	-1	1	0	chute_06s.jpg	0	0.0	0	187.83934478589802	187.889312846819	0.0499680609209463	209483
209.583	50	452	0	0	accordion	2	143	1	stimuli\accordion\accordion_09s.jpg	8	-1	1	0	accordion_09s.jpg	0	0.0	0	187.939350881148	187.98932869447202	0.049977813323494	209583
209.683	50	453	0	0	lens	916	144	1	stimuli\lens\lens_06s.jpg	5	-1	1	0	lens_06s.jpg	0	0.0	0	188.03935429448	188.08930894587	0.04995465138927099	209683
209.783	50	454	0	0	tent	1643	145	1	stimuli\tent\tent_07n.jpg	6	-1	1	0	tent_07n.jpg	0	0.0	0	188.139336252585	188.189336252573	0.0499999999883585	209783
209.883	50	455	0	0	windsock	1822	146	1	stimuli\windsock\windsock_03s.jpg	2	-1	1	0	windsock_03s.jpg	0	0.0	0	188.23935697641002	188.28934039734298	0.0499834209331311	209883
209.983	50	456	0	0	tuning_fork	1728	147	1	stimuli\tuning_fork\tuning_fork_09s.jpg	8	-1	1	0	tuning_fork_09s.jpg	0	0.0	0	188.33932674402598	188.389305044955	0.0499783009290695	209983
210.083	50	457	0	0	honeycomb	789	148	1	stimuli\honeycomb\honeycomb_12s.jpg	11	-1	1	0	honeycomb_12s.jpg	0	0.0	0	188.43933308305	188.489306995412	0.0499739123624749	210083
210.183	50	458	0	0	pennant	1148	149	1	stimuli\pennant\pennant_10s.jpg	9	-1	1	0	pennant_10s.jpg	0	0.0	0	188.539331376378	188.58931089634999	0.049979519972112	210183
210.283	50	459	0	0	grits	717	150	1	stimuli\grits\grits_02s.jpg	1	-1	1	0	grits_02s.jpg	0	0.0	0	188.63933966593999	188.68934649258202	0.0500068266410381	210283
210.383	50	460	0	0	cougar	423	151	1	stimuli\cougar\cougar_11s.jpg	10	-1	1	0	cougar_11s.jpg	0	0.0	0	188.739374774508	188.78934966208197	0.0499748875736259	210383
210.483	50	461	0	0	toilet_paper	1671	152	1	stimuli\toilet_paper\toilet_paper_12s.jpg	11	-1	1	0	toilet_paper_12s.jpg	0	0.0	0	188.839359170699	188.889353319246	0.0499941485468298	210483
210.583	50	462	0	0	hopscotch	796	153	1	stimuli\hopscotch\hopscotch_01b.jpg	0	-1	1	0	hopscotch_01b.jpg	0	0.0	0	188.939375749731	188.989360633539	0.0499848838080652	210583
210.683	50	463	0	0	palm_tree	1102	154	1	stimuli\palm_tree\palm_tree_09s.jpg	8	-1	1	0	palm_tree_09s.jpg	0	0.0	0	189.03936185257	189.08935965830503	0.049997805734165006	210683
210.783	50	464	0	0	flask	612	155	1	stimuli\flask\flask_03s.jpg	2	-1	1	0	flask_03s.jpg	0	0.0	0	189.139381844958	189.189341616409	0.0499597714515403	210783
210.883	50	465	0	0	gravel	709	156	1	stimuli\gravel\gravel_02n.jpg	1	-1	1	0	gravel_02n.jpg	0	0.0	0	189.239383064036	189.289364534488	0.0499814704526216	210883
210.983	50	466	0	0	crossbow	444	157	1	stimuli\crossbow\crossbow_06s.jpg	5	-1	1	0	crossbow_06s.jpg	0	0.0	0	189.33938550215697	189.389367704047	0.0499822018900886	210983
211.083	50	467	0	0	bull	214	158	1	stimuli\bull\bull_09s.jpg	8	-1	1	0	bull_09s.jpg	0	0.0	0	189.4393898907	189.489372824028	0.0499829333275557	211083
211.183	50	468	0	0	frisbee	643	159	1	stimuli\frisbee\frisbee_03s.jpg	2	-1	1	0	frisbee_03s.jpg	0	0.0	0	189.539394523075	189.58935648878102	0.0499619657057337	211183
211.283	50	469	0	0	speedboat	1511	160	1	stimuli\speedboat\speedboat_08s.jpg	7	-1	1	0	speedboat_08s.jpg	0	0.0	0	189.63939427927798	189.68937379925	0.049979519972112	211283
211.383	50	470	0	0	garbage	655	161	1	stimuli\garbage\garbage_12s.jpg	11	-1	1	0	garbage_12s.jpg	0	0.0	0	189.73937965068	189.78937891928902	0.0499992686090991	211383
211.483	50	471	0	0	seismograph	1403	162	1	stimuli\seismograph\seismograph_07s.jpg	6	-1	1	0	seismograph_07s.jpg	0	0.0	0	189.839385989762	189.889386477356	0.0500004875939339	211483
211.583	50	472	0	0	bat2	88	163	1	stimuli\bat2\bat2_11s.jpg	10	-1	1	0	bat2_11s.jpg	0	0.0	0	189.939390134532	189.98935258784303	0.0499624533113092	211583
211.683	50	473	0	0	vulture	1768	164	1	stimuli\vulture\vulture_03s.jpg	2	-1	1	0	vulture_03s.jpg	0	0.0	0	190.039374774497	190.089391841204	0.0500170667073689	211683
211.783	50	474	0	0	weather_vane	1798	165	1	stimuli\weather_vane\weather_vane_09s.jpg	8	-1	1	0	weather_vane_09s.jpg	0	0.0	0	190.139415490732	190.18938794022	0.0499724494875409	211783
211.883	50	475	0	0	arrow	38	166	1	stimuli\arrow\arrow_08s.jpg	7	-1	1	0	arrow_08s.jpg	0	0.0	0	190.239412077412	190.289362584008	0.0499505065963604	211883
211.983	50	476	0	0	aardvark	0	167	1	stimuli\aardvark\aardvark_03s.jpg	2	-1	1	0	aardvark_03s.jpg	0	0.0	0	190.33937696879698	190.389360633562	0.0499836647650227	211983
212.083	50	477	0	0	beaver	107	168	1	stimuli\beaver\beaver_12s.jpg	11	-1	1	0	beaver_12s.jpg	0	0.0	0	190.43941817263803	190.48937891924302	0.0499607466044836	212083
212.183	50	478	0	0	pea	1128	169	1	stimuli\pea\pea_12s.jpg	11	-1	1	0	pea_12s.jpg	0	0.0	0	190.53938403929402	190.589366972621	0.0499829333275557	212183
212.283	50	479	0	0	navel	1052	170	1	stimuli\navel\navel_02s.jpg	1	-1	1	0	navel_02s.jpg	0	0.0	0	190.639378675434	190.689401593583	0.0500229181488976	212283
212.383	50	480	0	0	remote_control	1302	171	1	stimuli\remote_control\remote_control_04s.jpg	3	-1	1	0	remote_control_04s.jpg	0	0.0	0	190.73939501069302	190.78937599354	0.0499809828470461	212383
212.483	50	481	0	0	roller_coaster	1325	172	1	stimuli\roller_coaster\roller_coaster_10s.jpg	9	-1	1	0	roller_coaster_10s.jpg	0	0.0	0	190.839395010727	190.88937794405498	0.0499829333275557	212483
212.583	50	482	0	0	seagull	1395	173	1	stimuli\seagull\seagull_08s.jpg	7	-1	1	0	seagull_08s.jpg	0	0.0	0	190.93939939927103	190.98938184499298	0.0499824457219802	212583
212.683	50	483	0	0	cockroach	373	174	1	stimuli\cockroach\cockroach_10n.jpg	9	-1	1	1	cockroach_10n.jpg	0	0.0	0	191.03940915165	191.089384283056	0.0499751314055175	212683
212.783	50	484	0	0	iceskate	823	175	1	stimuli\iceskate\iceskate_08s.jpg	7	-1	1	0	iceskate_08s.jpg	0	0.0	0	191.13940110593103	191.18938745261397	0.0499863466829993	212783
212.883	50	485	0	0	outfit	1087	176	1	stimuli\outfit\outfit_10s.jpg	9	-1	1	0	outfit_10s.jpg	0	0.0	0	191.239407445013	191.289396717388	0.0499892723746598	212883
212.983	50	486	0	0	pepper2	1150	177	1	stimuli\pepper2\pepper2_11s.jpg	10	-1	1	0	pepper2_11s.jpg	1	0.35015993914566906	1	191.33940866403302	191.389391841192	0.0499831771594472	212983
213.083	50	487	0	0	bouquet	173	178	1	stimuli\bouquet\bouquet_03s.jpg	2	-1	1	0	bouquet_03s.jpg	0	0.0	0	191.43940842023602	191.489383551641	0.0499751314055175	213083
213.183	50	488	0	0	bag	54	179	1	stimuli\bag\bag_04s.jpg	3	-1	1	0	bag_04s.jpg	0	0.0	0	191.539449624077	191.589396961208	0.049947337131016005	213183
213.283	50	489	0	0	dumbwaiter	531	180	1	stimuli\dumbwaiter\dumbwaiter_03s.jpg	2	-1	1	0	dumbwaiter_03s.jpg	0	0.0	0	191.63941890402901	191.689431338338	0.0500124343088828	213283
213.383	50	490	0	0	recliner	1294	181	1	stimuli\recliner\recliner_03s.jpg	2	-1	1	0	recliner_03s.jpg	0	0.0	0	191.739454012655	191.789431338373	0.0499773257179186	213383
213.483	50	491	0	0	latte	901	182	1	stimuli\latte\latte_06s.jpg	5	-1	1	0	latte_06s.jpg	0	0.0	0	191.83945450029597	191.889436458354	0.0499819580581971	213483
213.583	50	492	0	0	springboard	1522	183	1	stimuli\springboard\springboard_10s.jpg	9	-1	1	0	springboard_10s.jpg	0	0.0	0	191.93945523171	191.98943914024898	0.0499839085387066	213583
213.683	50	493	0	0	swan	1591	184	1	stimuli\swan\swan_04s.jpg	3	-1	1	0	swan_04s.jpg	0	0.0	0	192.03943572694	192.089408907865	0.0499731809250079	213683
213.783	50	494	0	0	peacock	1130	185	1	stimuli\peacock\peacock_02s.jpg	1	-1	1	0	peacock_02s.jpg	0	0.0	0	192.13943328883	192.18941475928298	0.0499814704526216	213783
213.883	50	495	0	0	pantsuit	1109	186	1	stimuli\pantsuit\pantsuit_06s.jpg	5	-1	1	0	pantsuit_06s.jpg	0	0.0	0	192.239443772647	192.289419391658	0.0499756190110929	213883
213.983	50	496	0	0	crumb	451	187	1	stimuli\crumb\crumb_09s.jpg	8	-1	1	0	crumb_09s.jpg	0	0.0	0	192.339438165014	192.389422317385	0.0499841523705982	213983
214.083	50	497	0	0	butterfly	229	188	1	stimuli\butterfly\butterfly_07s.jpg	6	-1	1	0	butterfly_07s.jpg	0	0.0	0	192.439443528827	192.48942475550598	0.0499812266789377	214083
214.183	50	498	0	0	brake	191	189	1	stimuli\brake\brake_01b.jpg	0	-1	1	0	brake_01b.jpg	0	0.0	0	192.539444991678	192.589424999314	0.0499800076358952	214183
214.283	50	499	0	0	hedgehog	774	190	1	stimuli\hedgehog\hedgehog_02s.jpg	1	-1	1	0	hedgehog_02s.jpg	0	0.0	0	192.63944913644798	192.689428900252	0.0499797638040036	214283
214.383	50	500	0	0	bun	220	191	1	stimuli\bun\bun_07s.jpg	6	-1	1	0	bun_07s.jpg	0	0.0	0	192.739451818343	192.78943109454102	0.0499792761984281	214383
214.483	50	501	0	0	grasshopper	706	192	1	stimuli\grasshopper\grasshopper_06s.jpg	5	-1	1	0	grasshopper_06s.jpg	0	0.0	0	192.839453281194	192.88943304499801	0.0499797638040036	214483
214.583	50	502	0	0	rolling_pin	1328	193	1	stimuli\rolling_pin\rolling_pin_02s.jpg	1	-1	1	0	rolling_pin_02s.jpg	0	0.0	0	192.939458401233	192.989442309772	0.0499839085387066	214583
214.683	50	503	0	0	candy_cane	257	194	1	stimuli\candy_cane\candy_cane_08s.jpg	7	-1	1	0	candy_cane_08s.jpg	0	0.0	0	193.039457913605	193.089440115495	0.0499822018900886	214683
214.783	50	504	0	0	headscarf	768	195	1	stimuli\headscarf\headscarf_12s.jpg	11	-1	1	0	headscarf_12s.jpg	0	0.0	0	193.13946132693698	193.189442309784	0.0499809828470461	214783
214.883	50	505	0	0	grain	698	196	1	stimuli\grain\grain_12s.jpg	11	-1	1	0	grain_12s.jpg	0	0.0	0	193.239471323148	193.28944279742402	0.0499714742763899	214883
214.983	50	506	0	0	baseball_bat	79	197	1	stimuli\baseball_bat\baseball_bat_01b.jpg	0	-1	1	0	baseball_bat_01b.jpg	0	0.0	0	193.339456938382	193.389474492637	0.0500175542547368	214983
215.083	50	507	0	0	toothpaste	1680	198	1	stimuli\toothpaste\toothpaste_09s.jpg	8	-1	1	0	toothpaste_09s.jpg	0	0.0	0	193.43950082408298	193.489464008831	0.0499631847487763	215083
215.183	50	508	0	0	soup	1499	199	1	stimuli\soup\soup_07s.jpg	6	-1	1	1	soup_07s.jpg	0	0.0	0	193.539483513625	193.589455231675	0.0499717180500738	215183
215.283	50	509	0	0	binoculars	127	200	1	stimuli\binoculars\binoculars_04s.jpg	3	-1	1	0	binoculars_04s.jpg	0	0.0	0	193.639477418386	193.689461326925	0.0499839085387066	215283
215.383	50	510	0	0	bumper	219	201	1	stimuli\bumper\bumper_10s.jpg	9	-1	1	0	bumper_10s.jpg	0	0.0	0	193.73948229459302	193.789463765046	0.0499814704526216	215383
215.483	50	511	0	0	reindeer	1301	202	1	stimuli\reindeer\reindeer_01b.jpg	0	-1	1	0	reindeer_01b.jpg	0	0.0	0	193.83948205073798	193.88946474029203	0.0499826895538718	215483
215.583	50	512	0	0	cheese	312	203	1	stimuli\cheese\cheese_04s.jpg	3	-1	1	0	cheese_04s.jpg	1	0.3921610314282589	1	193.93947644316398	193.98947498027698	0.0499985371134244	215583
215.683	50	513	0	0	railing	1277	204	1	stimuli\railing\railing_08s.jpg	7	-1	1	0	railing_08s.jpg	0	0.0	0	194.039488146023	194.08946961647598	0.0499814704526216	215683
215.783	50	514	0	0	file1	583	205	1	stimuli\file1\file1_10s.jpg	9	-1	1	0	file1_10s.jpg	0	0.0	0	194.13949107169202	194.189472542203	0.0499814705108292	215783
215.883	50	515	0	0	can	250	206	1	stimuli\can\can_10s.jpg	9	-1	1	0	can_10s.jpg	0	0.0	0	194.23948546411702	194.289500824118	0.0500153600005433	215883
215.983	50	516	0	0	mouse2	1027	207	1	stimuli\mouse2\mouse2_02s.jpg	1	-1	1	0	mouse2_02s.jpg	0	0.0	0	194.339493022184	194.38947205455003	0.0499790323665366	215983
216.083	50	517	0	0	rose	1334	208	1	stimuli\rose\rose_12s.jpg	11	-1	1	0	rose_12s.jpg	0	0.0	0	194.439504237438	194.48947766219501	0.0499734247568995	216083
216.183	50	518	0	0	donkey	504	209	1	stimuli\donkey\donkey_07s.jpg	6	-1	1	0	donkey_07s.jpg	0	0.0	0	194.539499117411	194.589479125047	0.0499800076358952	216183
216.283	50	519	0	0	hotdog	805	210	1	stimuli\hotdog\hotdog_02s.jpg	1	-1	1	0	hotdog_02s.jpg	0	0.0	0	194.63950131169997	194.689481563168	0.0499802514677867	216283
216.383	50	520	0	0	moose	1018	211	1	stimuli\moose\moose_10s.jpg	9	-1	1	0	moose_10s.jpg	0	0.0	0	194.73949058412103	194.7894849765	0.0499943923787214	216383
216.483	50	521	0	0	ketchup	867	212	1	stimuli\ketchup\ketchup_12s.jpg	11	-1	1	0	ketchup_12s.jpg	0	0.0	0	194.83950594411	194.88948717078898	0.0499812266789377	216483
216.583	50	522	0	0	poinsettia	1209	213	1	stimuli\poinsettia\poinsettia_11s.jpg	10	-1	1	0	poinsettia_11s.jpg	0	0.0	0	194.939510576485	194.989491559332	0.0499809828470461	216583
216.683	50	523	0	0	bunkbed	222	214	1	stimuli\bunkbed\bunkbed_02s.jpg	1	-1	1	0	bunkbed_02s.jpg	0	0.0	0	195.039511064126	195.089492046973	0.0499809828470461	216683
216.783	50	524	0	0	gift	672	215	1	stimuli\gift\gift_12s.jpg	11	-1	1	0	gift_12s.jpg	0	0.0	0	195.139515452669	195.189489852695	0.0499744000262581	216783
216.883	50	525	0	0	checkbook	310	216	1	stimuli\checkbook\checkbook_11s.jpg	10	-1	1	0	checkbook_11s.jpg	0	0.0	0	195.239546172728	195.28952691174302	0.0499807390151545	216883
216.983	50	526	0	0	earring	540	217	1	stimuli\earring\earring_11n.jpg	10	-1	1	0	earring_11n.jpg	0	0.0	0	195.33954958606003	195.389529349864	0.0499797638040036	216983
217.083	50	527	0	0	skeleton	1450	218	1	stimuli\skeleton\skeleton_01b.jpg	0	-1	1	0	skeleton_01b.jpg	0	0.0	0	195.439552024123	195.489537151763	0.0499851276399568	217083
217.183	50	528	0	0	crate	433	219	1	stimuli\crate\crate_05s.jpg	4	-1	1	0	crate_05s.jpg	0	0.0	0	195.539554218412	195.589534469822	0.0499802514095791	217183
217.283	50	529	0	0	eye_patch	565	220	1	stimuli\eye_patch\eye_patch_03s.jpg	2	-1	1	0	eye_patch_03s.jpg	0	0.0	0	195.639544709818	195.68953520129398	0.0499904914759099	217283
217.383	50	530	0	0	shower_curtain	1435	221	1	stimuli\shower_curtain\shower_curtain_07s.jpg	6	-1	1	0	shower_curtain_07s.jpg	0	0.0	0	195.739561045077	195.789527643181	0.0499665981042199	217383
217.483	50	531	0	0	charger	308	222	1	stimuli\charger\charger_03s.jpg	2	-1	1	0	charger_03s.jpg	0	0.0	0	195.83956153271703	195.88954422221298	0.0499826894956641	217483
217.583	50	532	0	0	antelope	26	223	1	stimuli\antelope\antelope_08n.jpg	7	-1	1	0	antelope_08n.jpg	0	0.0	0	195.939570309885	195.98954787937697	0.0499775694916025	217583
217.683	50	533	0	0	corkboard	410	224	1	stimuli\corkboard\corkboard_09s.jpg	8	-1	1	0	corkboard_09s.jpg	0	0.0	0	196.03956738417	196.08952861838	0.04996123421005901	217683
217.783	50	534	0	0	drumstick	523	225	1	stimuli\drumstick\drumstick_03s.jpg	2	-1	1	0	drumstick_03s.jpg	0	0.0	0	196.13954763556802	196.18952666793498	0.0499790323665366	217783
217.883	50	535	0	0	calf1	241	226	1	stimuli\calf1\calf1_09s.jpg	8	-1	1	0	calf1_09s.jpg	0	0.0	0	196.239550561295	196.289529593661	0.0499790323665366	217883
217.983	50	536	0	0	scuba	1392	227	1	stimuli\scuba\scuba_05s.jpg	4	-1	1	0	scuba_05s.jpg	0	0.0	0	196.33957542985402	196.38954227173198	0.0499668418779038	217983
218.083	50	537	0	0	owl	1091	228	1	stimuli\owl\owl_04s.jpg	3	-1	1	0	owl_04s.jpg	0	0.0	0	196.439551536518	196.489550805069	0.0499992685508914	218083
218.183	50	538	0	0	sofa_bed	1492	229	1	stimuli\sofa_bed\sofa_bed_11s.jpg	10	-1	1	0	sofa_bed_11s.jpg	0	0.0	0	196.539575673698	196.589555681276	0.0499800075776875	218183
218.283	50	539	0	0	belt_buckle	119	230	1	stimuli\belt_buckle\belt_buckle_09s.jpg	8	-1	1	0	belt_buckle_09s.jpg	0	0.0	0	196.639573967026	196.689555437479	0.0499814704526216	218283
218.383	50	540	0	0	ferris_wheel	579	231	1	stimuli\ferris_wheel\ferris_wheel_02s.jpg	1	-1	1	0	ferris_wheel_02s.jpg	0	0.0	0	196.73958030605	196.789561532729	0.0499812266789377	218383
218.483	50	541	0	0	filter	587	232	1	stimuli\filter\filter_03s.jpg	2	-1	1	0	filter_03s.jpg	0	0.0	0	196.83960663748402	196.889572991757	0.0499663542723283	218483
218.583	50	542	0	0	sandbag	1353	233	1	stimuli\sandbag\sandbag_08s.jpg	7	-1	1	1	sandbag_08s.jpg	0	0.0	0	196.93958396319098	196.989564458432	0.0499804952414706	218583
218.683	50	543	0	0	boxing_gloves	183	234	1	stimuli\boxing_gloves\boxing_gloves_06s.jpg	5	-1	1	0	boxing_gloves_06s.jpg	0	0.0	0	197.039588595566	197.089549342229	0.0499607466626912	218683
218.783	50	544	0	0	staple_gun	1538	235	1	stimuli\staple_gun\staple_gun_03s.jpg	2	-1	1	0	staple_gun_03s.jpg	0	0.0	0	197.139582012722	197.18955178035	0.0499697676277719	218783
218.883	50	545	0	0	compass	392	236	1	stimuli\compass\compass_02s.jpg	1	-1	1	0	compass_02s.jpg	0	0.0	0	197.23957347939702	197.289553243201	0.0499797638040036	218883
218.983	50	546	0	0	oil	1072	237	1	stimuli\oil\oil_03s.jpg	2	-1	1	0	oil_03s.jpg	1	0.392146890459117	1	197.339572747936	197.389560801268	0.0499880533316173	218983
219.083	50	547	0	0	yak	1845	238	1	stimuli\yak\yak_12s.jpg	11	-1	1	0	yak_12s.jpg	0	0.0	0	197.43958932702702	197.489567627956	0.0499783009290695	219083
219.183	50	548	0	0	platypus	1198	239	1	stimuli\platypus\platypus_08s.jpg	7	-1	1	0	platypus_08s.jpg	0	0.0	0	197.539580306038	197.589560557448	0.0499802514095791	219183
219.283	50	549	0	0	apple_tree	31	240	1	stimuli\apple_tree\apple_tree_05s.jpg	4	-1	1	0	apple_tree_05s.jpg	0	0.0	0	197.639584938413	197.689564214612	0.0499792761984281	219283
219.383	50	550	0	0	mango	966	241	1	stimuli\mango\mango_02s.jpg	1	-1	1	0	mango_02s.jpg	0	0.0	0	197.739612732723	197.789577867952	0.0499651352292858	219383
219.483	50	551	0	0	asparagus	42	242	1	stimuli\asparagus\asparagus_03s.jpg	2	-1	1	0	asparagus_03s.jpg	0	0.0	0	197.83961760893	197.889601761301	0.0499841523705982	219483
219.583	50	552	0	0	pliers	1201	243	1	stimuli\pliers\pliers_02s.jpg	1	-1	1	0	pliers_02s.jpg	0	0.0	0	197.939626142266	197.989604930859	0.0499787885928527	219583
219.683	50	553	0	0	grill	714	244	1	stimuli\grill\grill_09s.jpg	8	-1	1	0	grill_09s.jpg	0	0.0	0	198.039608587977	198.089604199398	0.0499956114217639	219683
219.783	50	554	0	0	gate	662	245	1	stimuli\gate\gate_02s.jpg	1	-1	1	0	gate_02s.jpg	0	0.0	0	198.139640039415	198.189608831774	0.0499687923584133	219783
219.883	50	555	0	0	ambulance	19	246	1	stimuli\ambulance\ambulance_06s.jpg	5	-1	1	0	ambulance_06s.jpg	0	0.0	0	198.239626873692	198.28960736893399	0.0499804952414706	219883
219.983	50	556	0	0	rug	1340	247	1	stimuli\rug\rug_07s.jpg	6	-1	1	0	rug_07s.jpg	0	0.0	0	198.33961322036302	198.38956835935798	0.0499551389948465	219983
220.083	50	557	0	0	trough	1718	248	1	stimuli\trough\trough_02s.jpg	1	-1	1	0	trough_02s.jpg	0	0.0	0	198.43961005081698	198.48958957084702	0.0499795200303197	220083
220.183	50	558	0	0	cornucopia	416	249	1	stimuli\cornucopia\cornucopia_08s.jpg	7	-1	1	0	cornucopia_08s.jpg	0	0.0	0	198.539611026063	198.58959274034697	0.0499817142845131	220183
220.283	50	559	0	0	windshield_wiper	1821	250	1	stimuli\windshield_wiper\windshield_wiper_02s.jpg	1	-1	1	0	windshield_wiper_02s.jpg	0	0.0	0	198.63962687371497	198.68959615367902	0.0499692799639888	220283
220.383	50	560	0	0	jar	840	251	1	stimuli\jar\jar_02s.jpg	1	-1	1	0	jar_02s.jpg	0	0.0	0	198.739612488949	198.789605662285	0.0499931733356789	220383
220.483	50	561	0	0	clasp	351	252	1	stimuli\clasp\clasp_08s.jpg	7	-1	1	0	clasp_08s.jpg	0	0.0	0	198.83964613464198	198.889624923235	0.0499787885928527	220483
220.583	50	562	0	0	burner	224	253	1	stimuli\burner\burner_09s.jpg	8	-1	1	0	burner_09s.jpg	0	0.0	0	198.93964808515702	198.989627848961	0.0499797638040036	220583
220.683	50	563	0	0	mandolin	965	254	1	stimuli\mandolin\mandolin_02s.jpg	1	-1	1	0	mandolin_02s.jpg	0	0.0	0	199.03964759752898	199.089631262294	0.0499836647650227	220683
220.783	50	564	0	0	perfume	1154	255	1	stimuli\perfume\perfume_08s.jpg	7	-1	1	0	perfume_08s.jpg	0	0.0	0	199.139624679403	199.189612001297	0.0499873218941502	220783
220.883	50	565	0	0	stomach	1560	256	1	stimuli\stomach\stomach_04s.jpg	3	-1	1	0	stomach_04s.jpg	0	0.0	0	199.239653936587	199.289636138477	0.0499822018900886	220883
220.983	50	566	0	0	piecrust	1169	257	1	stimuli\piecrust\piecrust_12s.jpg	11	-1	1	0	piecrust_12s.jpg	0	0.0	0	199.339656130876	199.389627605153	0.0499714742763899	220983
221.083	50	567	0	0	globe	679	258	1	stimuli\globe\globe_06s.jpg	5	-1	1	0	globe_06s.jpg	0	0.0	0	199.43965954420898	199.48964101466098	0.0499814704526216	221083
221.183	50	568	0	0	wax	1795	259	1	stimuli\wax\wax_01b.jpg	0	-1	1	0	wax_01b.jpg	0	0.0	0	199.539660519455	199.58962662989498	0.0499661104404368	221183
221.283	50	569	0	0	baton2	93	260	1	stimuli\baton2\baton2_05s.jpg	4	-1	1	0	baton2_05s.jpg	0	0.0	0	199.63964906038	199.689654180373	0.0500051199924201	221283
221.383	50	570	0	0	maggot	955	261	1	stimuli\maggot\maggot_07s.jpg	6	-1	1	0	maggot_07s.jpg	0	0.0	0	199.739670759474	199.789634675602	0.0499639161280356	221383
221.483	50	571	0	0	penholder	1146	262	1	stimuli\penholder\penholder_07s.jpg	6	-1	1	0	penholder_07s.jpg	0	0.0	0	199.839671490889	199.88963394419997	0.0499624533113092	221483
221.583	50	572	0	0	bra	185	263	1	stimuli\bra\bra_05s.jpg	4	-1	1	0	bra_05s.jpg	0	0.0	0	199.93964540323898	199.989631262259	0.0499858590192162	221583
221.683	50	573	0	0	stethoscope	1550	264	1	stimuli\stethoscope\stethoscope_09n.jpg	8	-1	1	0	stethoscope_09n.jpg	0	0.0	0	200.03964906040298	200.089626386063	0.0499773256597109	221683
221.783	50	574	0	0	bagel	55	265	1	stimuli\bagel\bagel_01s.jpg	0	-1	1	0	bagel_01s.jpg	0	0.0	0	200.139652473736	200.18963394418802	0.0499814704526216	221783
221.883	50	575	0	0	sprouts	1524	266	1	stimuli\sprouts\sprouts_09s.jpg	8	-1	1	0	sprouts_09s.jpg	0	0.0	0	200.239649060415	200.28963565087201	0.0499865904566832	221883
221.983	50	576	0	0	gun	727	267	1	stimuli\gun\gun_09s.jpg	8	-1	1	0	gun_09s.jpg	0	0.0	0	200.33965832513098	200.389640283247	0.0499819581164047	221983
222.083	50	577	0	0	badger	53	268	1	stimuli\badger\badger_11s.jpg	10	-1	1	0	badger_11s.jpg	0	0.0	0	200.439686607104	200.48965320515	0.0499665980460122	222083
222.183	50	578	0	0	oilcan	1073	269	1	stimuli\oilcan\oilcan_10s.jpg	9	-1	1	0	oilcan_10s.jpg	0	0.0	0	200.53967368515399	200.58967027184602	0.0499965866911225	222183
222.283	50	579	0	0	bathtub	91	270	1	stimuli\bathtub\bathtub_01b.jpg	0	-1	1	0	bathtub_01b.jpg	0	0.0	0	200.63969635946	200.689676123264	0.0499797638040036	222283
222.383	50	580	0	0	slot	1469	271	1	stimuli\slot\slot_01b.jpg	0	-1	1	0	slot_01b.jpg	0	0.0	0	200.739698309917	200.78968221851397	0.0499839085969143	222383
222.483	50	581	0	0	skirt	1457	272	1	stimuli\skirt\skirt_07s.jpg	6	-1	1	0	skirt_07s.jpg	0	0.0	0	200.839698553726	200.889677829924	0.0499792761984281	222483
222.583	50	582	0	0	bulldozer	215	273	1	stimuli\bulldozer\bulldozer_04s.jpg	3	-1	1	0	bulldozer_04s.jpg	0	0.0	0	200.939703917538	200.98966563947	0.0499617219320498	222583
222.683	50	583	0	0	boy	184	274	1	stimuli\boy\boy_11s.jpg	10	-1	1	0	boy_11s.jpg	0	0.0	0	201.039687826124	201.089669784182	0.0499819580581971	222683
222.783	50	584	0	0	amber	18	275	1	stimuli\amber\amber_09s.jpg	8	-1	1	0	amber_09s.jpg	0	0.0	0	201.13971220707802	201.18968416895999	0.0499719618819654	222783
222.883	50	585	0	0	brussels_sprouts	206	276	1	stimuli\brussels_sprouts\brussels_sprouts_10s.jpg	9	-1	1	0	brussels_sprouts_10s.jpg	0	0.0	0	201.23971171944902	201.289688557561	0.0499768381123431	222883
222.983	50	586	0	0	mast	981	277	1	stimuli\mast\mast_06s.jpg	5	-1	1	0	mast_06s.jpg	0	0.0	0	201.339688313717	201.389728054695	0.0500397409778088	222983
223.083	50	587	0	0	coconut	375	278	1	stimuli\coconut\coconut_12s.jpg	11	-1	1	0	coconut_12s.jpg	0	0.0	0	201.439690508007	201.489671978517	0.0499814705108292	223083
223.183	50	588	0	0	holster	786	279	1	stimuli\holster\holster_01s.jpg	0	-1	1	0	holster_01s.jpg	0	0.0	0	201.53969221468998	201.58967685466598	0.0499846399761736	223183
223.283	50	589	0	0	nest	1056	280	1	stimuli\nest\nest_11s.jpg	10	-1	1	0	nest_11s.jpg	0	0.0	0	201.639697090897	201.689675147994	0.049978057097178	223283
223.383	50	590	0	0	snowboard	1481	281	1	stimuli\snowboard\snowboard_02s.jpg	1	-1	1	0	snowboard_02s.jpg	0	0.0	0	201.73969757853803	201.789662957541	0.0499653790029697	223383
223.483	50	591	0	0	pita	1189	282	1	stimuli\pita\pita_12s.jpg	11	-1	1	0	pita_12s.jpg	0	0.0	0	201.83970806235402	201.88968928897498	0.049981226620730006	223483
223.583	50	592	0	0	tool	1676	283	1	stimuli\tool\tool_12s.jpg	11	-1	1	0	tool_12s.jpg	0	0.0	0	201.939728298516	201.989709037589	0.0499807390733622	223583
223.683	50	593	0	0	cardigan	273	284	1	stimuli\cardigan\cardigan_02s.jpg	1	-1	1	0	cardigan_02s.jpg	0	0.0	0	202.039713669976	202.08969099563498	0.0499773256597109	223683
223.783	50	594	0	0	fishnet_stockings	604	285	1	stimuli\fishnet_stockings\fishnet_stockings_10s.jpg	9	-1	1	0	fishnet_stockings_10s.jpg	0	0.0	0	202.13970830611697	202.18972049659402	0.0500121904769912	223783
223.883	50	595	0	0	alpaca	15	286	1	stimuli\alpaca\alpaca_08s.jpg	7	-1	1	0	alpaca_08s.jpg	0	0.0	0	202.23971878993302	202.289718546148	0.0499997562146746	223883
223.983	50	596	0	0	blouse	144	287	1	stimuli\blouse\blouse_03s.jpg	2	-1	1	0	blouse_03s.jpg	0	0.0	0	202.33972171566	202.389719033788	0.0499973181285895	223983
224.083	50	597	0	0	statue	1543	288	1	stimuli\statue\statue_02s.jpg	1	-1	1	0	statue_02s.jpg	0	0.0	0	202.43974097660998	202.489722690894	0.0499817142845131	224083
224.183	50	598	0	0	blender	138	289	1	stimuli\blender\blender_01b.jpg	0	-1	1	0	blender_01b.jpg	0	0.0	0	202.539743902336	202.58970879373402	0.0499648913973942	224183
224.283	50	599	0	0	gumdrop	726	290	1	stimuli\gumdrop\gumdrop_08s.jpg	7	-1	1	0	gumdrop_08s.jpg	0	0.0	0	202.63973122421902	202.689732443308	0.0500012190896086	224283
224.383	50	600	0	0	cuckoo_clock	456	291	1	stimuli\cuckoo_clock\cuckoo_clock_09s.jpg	8	-1	1	0	cuckoo_clock_09s.jpg	0	0.0	0	202.739726591855	202.789707087097	0.0499804952414706	224383
224.483	50	601	0	0	muff	1034	292	1	stimuli\muff\muff_08s.jpg	7	-1	1	0	muff_08s.jpg	0	0.0	0	202.83972732326902	202.889709281386	0.0499819581164047	224483
224.583	50	602	0	0	cherry	316	293	1	stimuli\cherry\cherry_11s.jpg	10	-1	1	0	cherry_11s.jpg	0	0.0	0	202.939730980434	202.98973975755501	0.0500087771215476	224583
224.683	50	603	0	0	rice	1309	294	1	stimuli\rice\rice_12s.jpg	11	-1	1	0	rice_12s.jpg	0	0.0	0	203.039740732813	203.08971976517898	0.0499790323665366	224683
224.783	50	604	0	0	skunk	1459	295	1	stimuli\skunk\skunk_10s.jpg	9	-1	1	0	skunk_10s.jpg	0	0.0	0	203.13973488140599	203.189718546171	0.0499836647650227	224783
224.883	50	605	0	0	rattle	1287	296	1	stimuli\rattle\rattle_06s.jpg	5	-1	1	0	rattle_06s.jpg	0	0.0	0	203.239762188052	203.28971610806198	0.0499539200100116	224883
224.983	50	606	0	0	jigsaw_puzzle	851	297	1	stimuli\jigsaw_puzzle\jigsaw_puzzle_08s.jpg	7	-1	1	0	jigsaw_puzzle_08s.jpg	0	0.0	0	203.339738050941	203.38974902237499	0.0500109714339487	224983
225.083	50	607	0	0	sequin	1404	298	1	stimuli\sequin\sequin_09s.jpg	8	-1	1	0	sequin_09s.jpg	0	0.0	0	203.43976828333697	203.489749266184	0.0499809828470461	225083
225.183	50	608	0	0	face	569	299	1	stimuli\face\face_08s.jpg	7	-1	1	0	face_08s.jpg	0	0.0	0	203.539769258583	203.589753167122	0.0499839085387066	225183
