onset	duration	eventnumber	blocksequencenumber	isteststim	object	objectnumber	presentationnumber	sequencenumber	stim	stimnumber	teststimnumber	withinsequencenumber	istarget	stimname	response	rt	correct	time_stimon	time_stimoff	stimdur	sample
147.968	50	0	0	0	skull	1458	0	0	stimuli\skull\skull_05s.jpg	4	-1	0	0	skull_05s.jpg	0	0.0	0	136.075643114588	136.125619428496	0.0499763139077913	147968
148.068	50	1	0	0	hoe	784	1	0	stimuli\hoe\hoe_03s.jpg	2	-1	0	0	hoe_03s.jpg	0	0.0	0	136.175643772874	136.225619355353	0.0499755824791919	148068
148.168	50	2	0	0	trowel	1719	2	0	stimuli\trowel\trowel_10s.jpg	9	-1	0	0	trowel_10s.jpg	0	0.0	0	136.275643699731	136.32562635268602	0.0499826529546681	148168
148.268	50	3	0	0	place_mat	1193	3	0	stimuli\place_mat\place_mat_06s.jpg	5	-1	0	0	place_mat_06s.jpg	0	0.0	0	136.375684830393	136.425657730967	0.0499729005746303	148268
148.368	50	4	0	0	cockroach	373	4	0	stimuli\cockroach\cockroach_11s.jpg	10	-1	0	0	cockroach_11s.jpg	0	0.0	0	136.47567524868	136.52565985211	0.0499846034304028	148368
148.468	50	5	0	0	crowbar	447	5	0	stimuli\crowbar\crowbar_04s.jpg	3	-1	0	0	crowbar_04s.jpg	0	0.0	0	136.575666154586	136.62619713509199	0.0505309805066645	148468
148.568	50	6	0	0	chute	342	6	0	stimuli\chute\chute_03s.jpg	2	-1	0	0	chute_03s.jpg	0	0.0	0	136.6756675443	136.725663850586	0.0499963062861752	148568
148.668	50	7	0	0	contact_lens	397	7	0	stimuli\contact_lens\contact_lens_04s.jpg	3	-1	0	0	contact_lens_04s.jpg	0	0.0	0	136.775681855917	136.82567011649	0.0499882605729454	148668
148.768	50	8	0	0	cigarette_holder	346	8	0	stimuli\cigarette_holder\cigarette_holder_03s.jpg	2	-1	0	0	cigarette_holder_03s.jpg	0	0.0	0	136.87568836563	136.925633959542	0.0499455939113886	148768
148.868	50	9	0	0	scallop	1373	9	0	stimuli\scallop\scallop_07s.jpg	6	-1	0	0	scallop_07s.jpg	0	0.0	0	136.975659522967	137.025635593066	0.0499760700981824	148868
148.968	50	10	0	0	seahorse	1396	10	0	stimuli\seahorse\seahorse_08s.jpg	7	-1	0	0	seahorse_08s.jpg	0	0.0	0	137.075665301252	137.125640396112	0.0499750948602014	148968
149.068	50	11	0	0	bracelet1	187	11	0	stimuli\bracelet1\bracelet1_12s.jpg	11	-1	0	0	bracelet1_12s.jpg	0	0.0	0	137.17566669096598	137.225640566779	0.0499738758128387	149068
149.168	50	12	0	0	silverware	1445	12	0	stimuli\silverware\silverware_08s.jpg	7	-1	0	0	silverware_08s.jpg	0	0.0	0	137.275668812109	137.325650246016	0.0499814339070781	149168
149.268	50	13	0	0	stew	1551	13	0	stimuli\stew\stew_08s.jpg	7	-1	0	0	stew_08s.jpg	0	0.0	0	137.375705066581	137.425665532871	0.0499604662904858	149268
149.368	50	14	0	0	chariot	309	14	0	stimuli\chariot\chariot_01b.jpg	0	-1	0	0	chariot_01b.jpg	0	0.0	0	137.475701092486	137.525683014012	0.0499819215258412	149368
149.468	50	15	0	0	thread	1651	15	0	stimuli\thread\thread_03s.jpg	2	-1	0	0	thread_03s.jpg	0	0.0	0	137.575685903155	137.625674895156	0.0499889920013175	149468
149.568	50	16	0	0	sink	1447	16	0	stimuli\sink\sink_04s.jpg	3	-1	0	0	sink_04s.jpg	0	0.0	0	137.675709235723	137.725686768678	0.0499775329551539	149568
149.668	50	17	0	0	ferry	580	17	0	stimuli\ferry\ferry_07s.jpg	6	-1	0	0	ferry_07s.jpg	0	0.0	0	137.775711113056	137.825696691725	0.0499855786683838	149668
149.768	50	18	0	0	snowmobile	1483	18	0	stimuli\snowmobile\snowmobile_11s.jpg	10	-1	0	0	snowmobile_11s.jpg	0	0.0	0	137.87569372943898	137.925665167157	0.0499714377178861	149768
149.868	50	19	0	0	straw1	1568	19	0	stimuli\straw1\straw1_10s.jpg	9	-1	0	0	straw1_10s.jpg	0	0.0	0	137.975689023916	138.02566728829999	0.049978264383526	149868
149.968	50	20	0	0	antelope	26	20	0	stimuli\antelope\antelope_10n.jpg	9	-1	0	0	antelope_10n.jpg	0	0.0	0	138.075693826963	138.125661851348	0.0499680243849525	149968
150.068	50	21	0	0	lava	903	21	0	stimuli\lava\lava_01b.jpg	0	-1	0	0	lava_01b.jpg	0	0.0	0	138.175697654772	138.22566909249	0.0499714377176588	150068
150.168	50	22	0	0	magnifier	957	22	0	stimuli\magnifier\magnifier_05s.jpg	4	-1	0	0	magnifier_05s.jpg	0	0.0	0	138.27569270543898	138.325715099342	0.0500223939020543	150168
150.268	50	23	0	0	walker1	1773	23	0	stimuli\walker1\walker1_07s.jpg	6	-1	0	0	walker1_07s.jpg	0	0.0	0	138.375732129435	138.42570941858	0.049977289145545	150268
150.368	50	24	0	0	snail	1476	24	0	stimuli\snail\snail_04s.jpg	3	-1	0	0	snail_04s.jpg	0	0.0	0	138.475711088675	138.52570666353301	0.0499955748575758	150368
150.468	50	25	0	0	refrigerator	1300	25	0	stimuli\refrigerator\refrigerator_04s.jpg	3	-1	0	0	refrigerator_04s.jpg	0	0.0	0	138.57571296600798	138.62571585515101	0.0500028891424336	150468
150.568	50	26	0	0	cage	236	26	0	stimuli\cage\cage_07s.jpg	6	-1	0	0	cage_07s.jpg	0	0.0	0	138.675717281436	138.725712856294	0.0499955748578031	150568
150.668	50	27	0	0	baklava	57	27	0	stimuli\baklava\baklava_09s.jpg	8	-1	0	0	baklava_09s.jpg	0	0.0	0	138.775734274958	138.825705468867	0.0499711939082772	150668
150.768	50	28	0	0	nightshirt	1058	28	0	stimuli\nightshirt\nightshirt_04s.jpg	3	-1	0	0	nightshirt_04s.jpg	0	0.0	0	138.875737858958	138.925719536674	0.0499816777164597	150768
150.868	50	29	0	0	cigarette_butt	345	29	0	stimuli\cigarette_butt\cigarette_butt_10s.jpg	9	-1	0	0	cigarette_butt_10s.jpg	0	0.0	0	138.97574119914802	139.025723120674	0.0499819215258412	150868
150.968	50	30	0	0	missile	1006	30	0	stimuli\missile\missile_03s.jpg	2	-1	0	0	missile_03s.jpg	0	0.0	0	139.07574234505302	139.125700373248	0.0499580281955332	150968
151.068	50	31	0	0	spider	1513	31	0	stimuli\spider\spider_09n.jpg	8	-1	0	0	spider_09n.jpg	0	0.0	0	139.17572106048402	139.225695180106	0.0499741196222203	151068
151.168	50	32	0	0	turbine	1731	32	0	stimuli\turbine\turbine_05s.jpg	4	-1	0	0	turbine_05s.jpg	0	0.0	0	139.27572147496	139.325704859343	0.0499833843830402	151168
151.268	50	33	0	0	leech	909	33	0	stimuli\leech\leech_12s.jpg	11	-1	0	0	leech_12s.jpg	0	0.0	0	139.375760411336	139.425734043339	0.0499736320032298	151268
151.368	50	34	0	0	xylophone	1843	34	0	stimuli\xylophone\xylophone_05s.jpg	4	-1	0	0	xylophone_05s.jpg	0	0.0	0	139.47575570581301	139.525725436864	0.0499697310513056	151368
151.468	50	35	0	0	flyswatter	623	35	0	stimuli\flyswatter\flyswatter_02s.jpg	1	-1	0	0	flyswatter_02s.jpg	0	0.0	0	139.57576270314502	139.625739504672	0.0499768015265545	151468
151.568	50	36	0	0	moth	1023	36	0	stimuli\moth\moth_03n.jpg	2	-1	0	0	moth_03n.jpg	0	0.0	0	139.675759704288	139.7257387001	0.0499789958121255	151568
151.668	50	37	0	0	bow1	174	37	0	stimuli\bow1\bow1_10s.jpg	9	-1	0	0	bow1_10s.jpg	0	0.0	0	139.77576206924	139.82574716029	0.0499850910493933	151668
151.768	50	38	0	0	sewing_machine	1407	38	0	stimuli\sewing_machine\sewing_machine_04s.jpg	3	-1	0	0	sewing_machine_04s.jpg	0	0.0	0	139.875769066573	139.92575025667	0.0499811900974692	151768
151.868	50	39	0	0	stir_fry	1557	39	0	stimuli\stir_fry\stir_fry_08s.jpg	7	-1	0	0	stir_fry_08s.jpg	0	0.0	0	139.975768018192	140.025753596861	0.0499855786683838	151868
151.968	50	40	0	0	drill	520	40	0	stimuli\drill\drill_04s.jpg	3	-1	0	0	drill_04s.jpg	0	0.0	0	140.075752341242	140.12575523038402	0.0500028891424336	151968
152.068	50	41	0	0	tulip	1726	41	0	stimuli\tulip\tulip_09s.jpg	8	-1	0	0	tulip_09s.jpg	0	0.0	0	140.17574397857598	140.225721023912	0.0499770453361634	152068
152.168	50	42	0	0	pump	1252	42	0	stimuli\pump\pump_05s.jpg	4	-1	0	0	pump_05s.jpg	0	0.0	0	140.2757456121	140.32572021934098	0.0499746072412108	152168
152.268	50	43	0	0	chicken1	322	43	0	stimuli\chicken1\chicken1_03s.jpg	2	-1	0	0	chicken1_03s.jpg	0	0.0	0	140.375756510384	140.42572892334	0.0499724129558672	152268
152.368	50	44	0	0	seagull	1395	44	0	stimuli\seagull\seagull_08s.jpg	7	-1	0	0	seagull_08s.jpg	0	0.0	0	140.475751804861	140.525729825435	0.0499780205739171	152368
152.468	50	45	0	0	gel	669	45	0	stimuli\gel\gel_05s.jpg	4	-1	0	0	gel_05s.jpg	0	0.0	0	140.575756607908	140.625738285624	0.0499816777164597	152468
152.568	50	46	0	0	folder	625	46	0	stimuli\folder\folder_12s.jpg	11	-1	0	0	folder_12s.jpg	0	0.0	0	140.675759216669	140.72573504295798	0.0499758262888008	152568
152.668	50	47	0	0	board	152	47	0	stimuli\board\board_01b.jpg	0	-1	0	0	board_01b.jpg	0	0.0	0	140.775787669237	140.825740577434	0.0499529081962464	152668
152.768	50	48	0	0	pantyhose	1110	48	0	stimuli\pantyhose\pantyhose_05s.jpg	4	-1	0	0	pantyhose_05s.jpg	0	0.0	0	140.875765165621	140.925744161433	0.0499789958121255	152768
152.868	50	49	0	0	roof_rack	1329	49	0	stimuli\roof_rack\roof_rack_09s.jpg	8	-1	0	0	roof_rack_09s.jpg	0	0.0	0	140.97576874962098	141.025745063528	0.0499763139077913	152868
152.968	50	50	0	0	hanger	751	50	0	stimuli\hanger\hanger_12s.jpg	11	-1	0	0	hanger_12s.jpg	0	0.0	0	141.075766238383	141.125745478005	0.0499792396217345	152968
153.068	50	51	0	0	sandbag	1353	51	0	stimuli\sandbag\sandbag_03s.jpg	2	-1	0	0	sandbag_03s.jpg	0	0.0	0	141.175769334763	141.225744917243	0.0499755824791919	153068
153.168	50	52	0	0	banjo	68	52	0	stimuli\banjo\banjo_04s.jpg	3	-1	0	0	banjo_04s.jpg	0	0.0	0	141.275789497809	141.32575557171802	0.0499660739089904	153168
153.268	50	53	0	0	cream_cheese	437	53	0	stimuli\cream_cheese\cream_cheese_11s.jpg	10	-1	0	0	cream_cheese_11s.jpg	0	0.0	0	141.375807954187	141.425768420478	0.0499604662904858	153268
153.368	50	54	0	0	fudge	647	54	0	stimuli\fudge\fudge_09s.jpg	8	-1	0	0	fudge_09s.jpg	0	0.0	0	141.475791545808	141.525793947332	0.0500024015236704	153368
153.468	50	55	0	0	gopher	694	55	0	stimuli\gopher\gopher_04s.jpg	3	-1	0	0	gopher_04s.jpg	0	0.0	0	141.57578440219	141.625760228479	0.0499758262885734	153468
153.568	50	56	0	0	spring_roll	1521	56	0	stimuli\spring_roll\spring_roll_11s.jpg	10	-1	0	0	spring_roll_11s.jpg	0	0.0	0	141.675783597619	141.725759667717	0.0499760700981824	153568
153.668	50	57	0	0	blindfold	142	57	0	stimuli\blindfold\blindfold_07s.jpg	6	-1	0	0	blindfold_07s.jpg	0	0.0	0	141.775788644475	141.825769346954	0.0499807024784786	153668
153.768	50	58	0	0	fossil	636	58	0	stimuli\fossil\fossil_03s.jpg	2	-1	0	0	fossil_03s.jpg	0	0.0	0	141.875802224664	141.925763910002	0.0499616853378484	153768
153.868	50	59	0	0	breathalyzer	198	59	0	stimuli\breathalyzer\breathalyzer_01b.jpg	0	-1	0	0	breathalyzer_01b.jpg	0	0.0	0	141.975790936285	142.02576213019302	0.0499711939080498	153868
153.968	50	60	0	0	domino	503	60	0	stimuli\domino\domino_09s.jpg	8	-1	0	0	domino_09s.jpg	0	0.0	0	142.075801103141	142.125774003715	0.0499729005746303	153968
154.068	50	61	0	0	sauce	1362	61	0	stimuli\sauce\sauce_09s.jpg	8	-1	0	0	sauce_09s.jpg	0	0.0	0	142.175799079522	142.225772711525	0.0499736320032298	154068
154.168	50	62	0	0	poodle	1221	62	0	stimuli\poodle\poodle_01b.jpg	0	-1	0	0	poodle_01b.jpg	0	0.0	0	142.275810953044	142.325775320287	0.0499643672424099	154168
154.268	50	63	0	0	tee	1636	63	0	stimuli\tee\tee_05s.jpg	4	-1	0	0	tee_05s.jpg	0	0.0	0	142.375805516092	142.42577695381001	0.0499714377176588	154268
154.368	50	64	0	0	cheeseburger	313	64	0	stimuli\cheeseburger\cheeseburger_11s.jpg	10	-1	0	0	cheeseburger_11s.jpg	0	0.0	0	142.47580495533	142.52578053781	0.0499755824791919	154368
154.468	50	65	0	0	toolbox	1677	65	0	stimuli\toolbox\toolbox_11s.jpg	10	-1	0	0	toolbox_11s.jpg	0	0.0	0	142.575804638378	142.625814841806	0.0500102034272913	154468
154.568	50	66	0	0	turtle	1736	66	0	stimuli\turtle\turtle_02s.jpg	1	-1	0	0	turtle_02s.jpg	0	0.0	0	142.675836748089	142.725816962948	0.0499802148594881	154568
154.668	50	67	0	0	milkshake	1002	67	0	stimuli\milkshake\milkshake_02s.jpg	1	-1	0	0	milkshake_02s.jpg	0	0.0	0	142.775822533995	142.825793727903	0.0499711939082772	154668
154.768	50	68	0	0	vial	1760	68	0	stimuli\vial\vial_05s.jpg	4	-1	0	0	vial_05s.jpg	0	0.0	0	142.875817584662	142.925791216666	0.0499736320032298	154768
154.868	50	69	0	0	fig	581	69	0	stimuli\fig\fig_12s.jpg	11	-1	0	0	fig_12s.jpg	0	0.0	0	142.975816536281	143.025803577807	0.0499870415255828	154868
154.968	50	70	0	0	eel	545	70	0	stimuli\eel\eel_04s.jpg	3	-1	0	0	eel_04s.jpg	0	0.0	0	143.075822314566	143.125796677998	0.0499743634318293	154968
155.068	50	71	0	0	pepper_mill	1151	71	0	stimuli\pepper_mill\pepper_mill_04s.jpg	3	-1	0	0	pepper_mill_04s.jpg	0	0.0	0	143.175826142376	143.225800018188	0.0499738758126114	155068
155.168	50	72	0	0	weasel	1797	72	0	stimuli\weasel\weasel_02s.jpg	1	-1	0	0	weasel_02s.jpg	0	0.0	0	143.275827044471	143.325808965997	0.0499819215260686	155168
155.268	50	73	0	0	espresso	560	73	0	stimuli\espresso\espresso_09s.jpg	8	-1	0	0	espresso_09s.jpg	0	0.0	0	143.375832091327	143.425804504283	0.0499724129556398	155268
155.368	50	74	0	0	copier	405	74	0	stimuli\copier\copier_09s.jpg	8	-1	0	0	copier_09s.jpg	0	0.0	0	143.475827629613	143.525811989234	0.0499843596210212	155368
155.468	50	75	0	0	brake	191	75	0	stimuli\brake\brake_06s.jpg	5	-1	0	0	brake_06s.jpg	0	0.0	0	143.57583243266	143.625809234187	0.0499768015265545	155468
155.568	50	76	0	0	pine_needle	1180	76	0	stimuli\pine_needle\pine_needle_07s.jpg	6	-1	0	0	pine_needle_07s.jpg	0	0.0	0	143.675839673803	143.725813061996	0.0499733881936208	155568
155.668	50	77	0	0	mold1	1012	77	0	stimuli\mold1\mold1_11s.jpg	10	-1	0	0	mold1_11s.jpg	0	0.0	0	143.775844964468	143.825819084091	0.0499741196222203	155668
155.768	50	78	0	0	tab	1607	78	0	stimuli\tab\tab_09s.jpg	8	-1	0	0	tab_09s.jpg	0	0.0	0	143.87584586656402	143.925821692852	0.0499758262885734	155768
155.868	50	79	0	0	cheetah	315	79	0	stimuli\cheetah\cheetah_12s.jpg	11	-1	0	0	cheetah_12s.jpg	0	0.0	0	143.97587505056	144.025850876849	0.0499758262888008	155868
155.968	50	80	0	0	router	1336	80	0	stimuli\router\router_08s.jpg	7	-1	0	0	router_08s.jpg	0	0.0	0	144.07584864599198	144.125860068467	0.05001142247465401	155968
156.068	50	81	0	0	cellphone	293	81	0	stimuli\cellphone\cellphone_06s.jpg	5	-1	0	0	cellphone_06s.jpg	0	0.0	0	144.17587685475002	144.225843416278	0.0499665615277536	156068
156.168	50	82	0	0	gauze	664	82	0	stimuli\gauze\gauze_07s.jpg	6	-1	0	0	gauze_07s.jpg	0	0.0	0	144.275868492085	144.325843830754	0.0499753386695829	156168
156.268	50	83	0	0	mat	982	83	0	stimuli\mat\mat_11s.jpg	10	-1	0	0	mat_11s.jpg	0	0.0	0	144.37586451799	144.42582986047	0.0499653424806183	156268
156.368	50	84	0	0	walrus	1779	84	0	stimuli\walrus\walrus_06s.jpg	5	-1	0	0	walrus_06s.jpg	0	0.0	0	144.475857130562	144.52586928446502	0.0500121539032534	156368
156.468	50	85	0	0	scallion	1372	85	0	stimuli\scallion\scallion_09s.jpg	8	-1	0	0	scallion_09s.jpg	0	0.0	0	144.575887777416	144.625887009416	0.0499992320001184	156468
156.568	50	86	0	0	power_line	1237	86	0	stimuli\power_line\power_line_03s.jpg	2	-1	0	0	power_line_03s.jpg	0	0.0	0	144.67588892332	144.725856216277	0.049967292956353	156568
156.668	50	87	0	0	syringe	1604	87	0	stimuli\syringe\syringe_04s.jpg	3	-1	0	0	syringe_04s.jpg	0	0.0	0	144.775895920653	144.825873453608	0.0499775329551539	156668
156.768	50	88	0	0	car_seat	269	88	0	stimuli\car_seat\car_seat_02s.jpg	1	-1	0	0	car_seat_02s.jpg	0	0.0	0	144.875878537036	144.925874843322	0.0499963062861752	156768
156.868	50	89	0	0	marijuana	974	89	0	stimuli\marijuana\marijuana_08s.jpg	7	-1	0	0	marijuana_08s.jpg	0	0.0	0	144.975901138176	145.025859410181	0.0499582720051421	156868
156.968	50	90	0	0	muffin	1035	90	0	stimuli\muffin\muffin_05n.jpg	4	-1	0	0	muffin_05n.jpg	0	0.0	0	145.075910085984	145.12588054846398	0.0499704624799051	156968
157.068	50	91	0	0	dumbwaiter	531	91	0	stimuli\dumbwaiter\dumbwaiter_11s.jpg	10	-1	0	0	dumbwaiter_11s.jpg	0	0.0	0	145.175905136652	145.225885107702	0.0499799710501065	157068
157.168	50	92	0	0	mussel	1042	92	0	stimuli\mussel\mussel_02s.jpg	1	-1	0	0	mussel_02s.jpg	0	0.0	0	145.275907745413	145.325888447892	0.049980702478705986	157168
157.268	50	93	0	0	strainer	1566	93	0	stimuli\strainer\strainer_07s.jpg	6	-1	0	0	strainer_07s.jpg	0	0.0	0	145.375892556082	145.4259025157	0.0500099596179098	157268
157.368	50	94	0	0	curb	462	94	0	stimuli\curb\curb_04s.jpg	3	-1	0	0	curb_04s.jpg	0	0.0	0	145.475913450555	145.525877086369	0.0499636358138105	157368
157.468	50	95	0	0	oven	1089	95	0	stimuli\oven\oven_10s.jpg	9	-1	0	0	oven_10s.jpg	0	0.0	0	145.575898748843	145.625866041799	0.049967292956353	157468
157.568	50	96	0	0	taxi	1630	96	0	stimuli\taxi\taxi_07s.jpg	6	-1	0	0	taxi_07s.jpg	0	0.0	0	145.675890386177	145.72586279913298	0.0499724129556398	157568
157.668	50	97	0	0	dogfood	496	97	0	stimuli\dogfood\dogfood_10s.jpg	9	-1	0	0	dogfood_10s.jpg	0	0.0	0	145.775893482558	145.82590636788998	0.0500128853316255	157668
157.768	50	98	0	0	bouquet	173	98	0	stimuli\bouquet\bouquet_08s.jpg	7	-1	0	0	bouquet_08s.jpg	0	0.0	0	145.875911451318	145.92590166236602	0.0499902110489074	157768
157.868	50	99	0	0	ready_meal	1292	99	0	stimuli\ready_meal\ready_meal_04s.jpg	3	-1	0	0	ready_meal_04s.jpg	0	0.0	0	145.975945267694	146.025909634937	0.0499643672424099	157868
157.968	50	100	0	0	cash_machine	279	100	0	stimuli\cash_machine\cash_machine_12s.jpg	11	-1	0	0	cash_machine_12s.jpg	0	0.0	0	146.075928371696	146.125911024651	0.0499826529546681	157968
158.068	50	101	0	0	duster	534	101	0	stimuli\duster\duster_09s.jpg	8	-1	0	0	duster_09s.jpg	0	0.0	0	146.175915132841	146.225893397225	0.0499782643837534	158068
158.168	50	102	0	0	french_fries	641	102	0	stimuli\french_fries\french_fries_04s.jpg	3	-1	0	0	french_fries_04s.jpg	0	0.0	0	146.27591896065002	146.325885034559	0.0499660739089904	158168
158.268	50	103	0	0	robot	1318	103	0	stimuli\robot\robot_04s.jpg	3	-1	0	0	robot_04s.jpg	0	0.0	0	146.375938392267	146.425915925222	0.0499775329551539	158268
158.368	50	104	0	0	wheat	1805	104	0	stimuli\wheat\wheat_08n.jpg	7	-1	0	0	wheat_08n.jpg	0	0.0	0	146.475939781981	146.525917802555	0.0499780205741445	158368
158.468	50	105	0	0	rolling_pin	1328	105	0	stimuli\rolling_pin\rolling_pin_09s.jpg	8	-1	0	0	rolling_pin_09s.jpg	0	0.0	0	146.57593848979	146.62590334465202	0.0499648548616278	158468
158.568	50	106	0	0	dalmatian	471	106	0	stimuli\dalmatian\dalmatian_08s.jpg	7	-1	0	0	dalmatian_08s.jpg	0	0.0	0	146.675925250935	146.725923507697	0.0499982567621373	158568
158.668	50	107	0	0	hot-air_balloon	801	107	0	stimuli\hot-air_balloon\hot-air_balloon_03s.jpg	2	-1	0	0	hot-air_balloon_03s.jpg	0	0.0	0	146.77594565779	146.825928798363	0.0499831405734312	158668
158.768	50	108	0	0	cougar	423	108	0	stimuli\cougar\cougar_08s.jpg	7	-1	0	0	cougar_08s.jpg	0	0.0	0	146.87593119988702	146.925927749982	0.0499965500957842	158768
158.868	50	109	0	0	target	1627	109	0	stimuli\target\target_05s.jpg	4	-1	0	0	target_05s.jpg	0	0.0	0	146.975936246743	147.025931090172	0.0499948434292037	158868
158.968	50	110	0	0	fondue	626	110	0	stimuli\fondue\fondue_03s.jpg	2	-1	0	0	fondue_03s.jpg	0	0.0	0	147.075954215503	147.125918582745	0.0499643672424099	158968
159.068	50	111	0	0	incense	826	111	0	stimuli\incense\incense_08s.jpg	7	-1	0	0	incense_08s.jpg	0	0.0	0	147.17593000521998	147.225902905795	0.0499729005746303	159068
159.168	50	112	0	0	blanket	136	112	0	stimuli\blanket\blanket_12s.jpg	11	-1	0	0	blanket_12s.jpg	0	0.0	0	147.275929688268	147.32594208598	0.05001239771263501	159168
159.268	50	113	0	0	mailbox	960	113	0	stimuli\mailbox\mailbox_06s.jpg	5	-1	0	0	mailbox_06s.jpg	0	0.0	0	147.375947169408	147.425941769028	0.0499945996198221	159268
159.368	50	114	0	0	hammock	742	114	0	stimuli\hammock\hammock_06s.jpg	5	-1	0	0	hammock_06s.jpg	0	0.0	0	147.475966357216	147.525924629221	0.0499582720051421	159368
159.468	50	115	0	0	trapdoor	1703	115	0	stimuli\trapdoor\trapdoor_07s.jpg	6	-1	0	0	trapdoor_07s.jpg	0	0.0	0	147.575971647882	147.625944060837	0.0499724129556398	159468
159.568	50	116	0	0	gear	667	116	0	stimuli\gear\gear_05s.jpg	4	-1	0	0	gear_05s.jpg	0	0.0	0	147.675967673787	147.725947888646	0.0499802148594881	159568
159.668	50	117	0	0	dough	513	117	0	stimuli\dough\dough_11s.jpg	10	-1	0	0	dough_11s.jpg	0	0.0	0	147.775946145409	147.825924165983	0.0499780205741445	159668
159.768	50	118	0	0	sunroof	1586	118	0	stimuli\sunroof\sunroof_08s.jpg	7	-1	0	0	sunroof_08s.jpg	0	0.0	0	147.875948510361	147.92592653093502	0.0499780205741445	159768
159.868	50	119	0	0	coffee_filter	379	119	0	stimuli\coffee_filter\coffee_filter_09s.jpg	8	-1	0	0	coffee_filter_09s.jpg	0	0.0	0	147.975953557217	148.025923288269	0.0499697310513056	159868
159.968	50	120	0	0	warthog	1781	120	0	stimuli\warthog\warthog_08s.jpg	7	-1	0	1	warthog_08s.jpg	0	0.0	0	148.07596031074	148.125965394168	0.0500050834280046	159968
160.068	50	121	0	0	pillow	1176	121	0	stimuli\pillow\pillow_06s.jpg	5	-1	0	0	pillow_06s.jpg	0	0.0	0	148.175968039501	148.225961663883	0.0499936243816137	160068
160.168	50	122	0	0	touchpad	1691	122	0	stimuli\touchpad\touchpad_08s.jpg	7	-1	0	0	touchpad_08s.jpg	0	0.0	0	148.27598527683202	148.32596451645398	0.0499792396215071	160168
160.268	50	123	0	0	lamb_chop	890	123	0	stimuli\lamb_chop\lamb_chop_04s.jpg	3	-1	0	0	lamb_chop_04s.jpg	0	0.0	0	148.375988860832	148.42596590616802	0.0499770453361634	160268
160.368	50	124	0	0	gramophone	699	124	0	stimuli\gramophone\gramophone_08s.jpg	7	-1	0	0	gramophone_08s.jpg	0	0.0	0	148.475989762927	148.525971684453	0.0499819215258412	160368
160.468	50	125	0	0	doorknob	509	125	0	stimuli\doorknob\doorknob_01b.jpg	0	-1	0	0	doorknob_01b.jpg	1	0.492202606664932	1	148.575989689784	148.625957714169	0.0499680243849525	160468
160.568	50	126	0	0	hawk	760	126	0	stimuli\hawk\hawk_06s.jpg	5	-1	0	0	hawk_06s.jpg	0	0.0	0	148.675978401405	148.725959835312	0.0499814339070781	160568
160.668	50	127	0	0	bank	69	127	0	stimuli\bank\bank_12s.jpg	11	-1	0	0	bank_12s.jpg	0	0.0	0	148.775999539688	148.82598097359502	0.0499814339070781	160668
160.768	50	128	0	0	belt	118	128	0	stimuli\belt\belt_10s.jpg	9	-1	0	0	belt_10s.jpg	0	0.0	0	148.876000197973	148.925969197596	0.0499689996229336	160768
160.868	50	129	0	0	lid	923	129	0	stimuli\lid\lid_08s.jpg	7	-1	0	0	lid_08s.jpg	0	0.0	0	148.976003050544	149.025965467311	0.0499624167664479	160868
160.968	50	130	0	0	shuffleboard	1439	130	0	stimuli\shuffleboard\shuffleboard_01b.jpg	0	-1	0	0	shuffleboard_01b.jpg	0	0.0	0	149.075983228833	149.125953935122	0.0499707062892867	160968
161.068	50	131	0	0	freezer	640	131	0	stimuli\freezer\freezer_10s.jpg	9	-1	0	0	freezer_10s.jpg	0	0.0	0	149.175977791881	149.225961176264	0.0499833843828128	161068
161.168	50	132	0	0	lasagna	898	132	0	stimuli\lasagna\lasagna_06s.jpg	5	-1	0	0	lasagna_06s.jpg	0	0.0	0	149.275980888262	149.325958177407	0.049977289145545	161168
161.268	50	133	0	0	leotard	918	133	0	stimuli\leotard\leotard_03s.jpg	2	-1	0	0	leotard_03s.jpg	0	0.0	0	149.375980571309	149.425958591883	0.0499780205741445	161268
161.368	50	134	0	0	tack	1611	134	0	stimuli\tack\tack_07s.jpg	6	-1	0	0	tack_07s.jpg	0	0.0	0	149.47598561816602	149.526000210164	0.050014591998205994	161368
161.468	50	135	0	0	stove2	1564	135	0	stimuli\stove2\stove2_01b.jpg	0	-1	0	0	stove2_01b.jpg	0	0.0	0	149.576018215495	149.62598111988	0.0499629043854384	161468
161.568	50	136	0	0	boxing_gloves	183	136	0	stimuli\boxing_gloves\boxing_gloves_04s.jpg	3	-1	0	0	boxing_gloves_04s.jpg	0	0.0	0	149.676005220449	149.72600079530702	0.0499955748575758	161568
161.668	50	137	0	0	barrel	76	137	0	stimuli\barrel\barrel_10s.jpg	9	-1	0	0	barrel_10s.jpg	0	0.0	0	149.776007097782	149.826004623116	0.0499975253337652	161668
161.768	50	138	0	0	bookmark	166	138	0	stimuli\bookmark\bookmark_01s.jpg	0	-1	0	0	bookmark_01s.jpg	0	0.0	0	149.876023847494	149.925994066165	0.0499702186702962	161768
161.868	50	139	0	0	generator	671	139	0	stimuli\generator\generator_12s.jpg	11	-1	0	0	generator_12s.jpg	0	0.0	0	149.97601402197202	150.025984972071	0.0499709500988956	161868
161.968	50	140	0	0	skirt	1457	140	0	stimuli\skirt\skirt_09s.jpg	8	-1	0	0	skirt_09s.jpg	0	0.0	0	150.07603686692102	150.126015375114	0.0499785081929076	161968
162.068	50	141	0	0	jackhammer	837	141	0	stimuli\jackhammer\jackhammer_08s.jpg	7	-1	0	0	jackhammer_08s.jpg	0	0.0	0	150.17601826425698	150.225998235307	0.0499799710501065	162068
162.168	50	142	0	0	timer	1661	142	0	stimuli\timer\timer_02s.jpg	1	-1	0	0	timer_02s.jpg	0	0.0	0	150.276038671112	150.326022055495	0.0499833843830402	162168
162.268	50	143	0	0	hearing_aid	770	143	0	stimuli\hearing_aid\hearing_aid_10s.jpg	9	-1	0	0	hearing_aid_10s.jpg	0	0.0	0	150.37602348178	150.42600832902	0.0499848472400117	162268
162.368	50	144	0	0	pan	1103	144	0	stimuli\pan\pan_10s.jpg	9	-1	0	0	pan_10s.jpg	0	0.0	0	150.47604120673	150.525998747307	0.0499575405765427	162368
162.468	50	145	0	0	moose	1018	145	0	stimuli\moose\moose_11s.jpg	10	-1	0	0	moose_11s.jpg	0	0.0	0	150.576016265019	150.625992822736	0.0499765577171729	162468
162.568	50	146	0	0	wallpaper	1777	146	0	stimuli\wallpaper\wallpaper_08s.jpg	7	-1	0	0	wallpaper_08s.jpg	0	0.0	0	150.67601667949498	150.725990799117	0.0499741196222203	162568
162.668	50	147	0	0	oilcan	1073	147	0	stimuli\oilcan\oilcan_12s.jpg	11	-1	0	0	oilcan_12s.jpg	0	0.0	0	150.776024164447	150.826002185021	0.0499780205741445	162668
162.768	50	148	0	0	jalapeno	838	148	0	stimuli\jalapeno\jalapeno_12s.jpg	11	-1	0	0	jalapeno_12s.jpg	0	0.0	0	150.87603091796998	150.926005525211	0.0499746072412108	162768
162.868	50	149	0	0	hummingbird	811	149	0	stimuli\hummingbird\hummingbird_06s.jpg	5	-1	0	0	hummingbird_06s.jpg	0	0.0	0	150.97602767530302	151.02601203492398	0.0499843596210212	162868
162.968	50	150	0	0	crutch	452	150	0	stimuli\crutch\crutch_11s.jpg	10	-1	0	0	crutch_11s.jpg	0	0.0	0	151.076031259303	151.126004159878	0.0499729005748577	162968
163.068	50	151	0	0	fencepost	576	151	0	stimuli\fencepost\fencepost_05s.jpg	4	-1	0	0	fencepost_05s.jpg	0	0.0	0	151.176029479494	151.226004818163	0.0499753386698103	163068
163.168	50	152	0	0	flute	620	152	0	stimuli\flute\flute_02s.jpg	1	-1	0	0	flute_02s.jpg	0	0.0	0	151.276040377778	151.326015472638	0.0499750948602014	163168
163.268	50	153	0	0	hay	761	153	0	stimuli\hay\hay_07s.jpg	6	-1	0	0	hay_07s.jpg	0	0.0	0	151.376039329397	151.42601320521	0.0499738758128387	163268
163.368	50	154	0	0	fishbowl	601	154	0	stimuli\fishbowl\fishbowl_09s.jpg	8	-1	0	0	fishbowl_09s.jpg	0	0.0	0	151.47603633053998	151.52602459111299	0.0499882605729454	163368
163.468	50	155	0	0	chain	298	155	0	stimuli\chain\chain_11s.jpg	10	-1	0	0	chain_11s.jpg	0	0.0	0	151.576047228825	151.626017935114	0.0499707062892867	163468
163.568	50	156	0	0	goldfish	688	156	0	stimuli\goldfish\goldfish_05s.jpg	4	-1	0	0	goldfish_05s.jpg	0	0.0	0	151.676045936634	151.726021031495	0.0499750948602014	163568
163.668	50	157	0	0	spur	1525	157	0	stimuli\spur\spur_03s.jpg	2	-1	0	0	spur_03s.jpg	0	0.0	0	151.77605171492	151.826029247875	0.0499775329551539	163668
163.768	50	158	0	0	birdbath	129	158	0	stimuli\birdbath\birdbath_10s.jpg	9	-1	0	0	birdbath_10s.jpg	0	0.0	0	151.876048716063	151.926024786161	0.0499760700981824	163768
163.868	50	159	0	0	teddy_bear	1635	159	0	stimuli\teddy_bear\teddy_bear_03s.jpg	2	-1	0	0	teddy_bear_03s.jpg	0	0.0	0	151.976051081015	152.026035196826	0.0499841158114123	163868
163.968	50	160	0	0	pinwheel	1185	160	0	stimuli\pinwheel\pinwheel_12s.jpg	11	-1	0	0	pinwheel_12s.jpg	0	0.0	0	152.076053689776	152.126064137013	0.0500104472366729	163968
164.068	50	161	0	0	rim	1312	161	0	stimuli\rim\rim_12s.jpg	11	-1	0	0	rim_12s.jpg	0	0.0	0	152.176071414727	152.226068208632	0.0499967939051658	164068
164.168	50	162	0	0	test_tube	1645	162	0	stimuli\test_tube\test_tube_01b.jpg	0	-1	0	0	test_tube_01b.jpg	0	0.0	0	152.276092065391	152.326071061203	0.0499789958121255	164168
164.268	50	163	0	0	arch	35	163	0	stimuli\arch\arch_06s.jpg	5	-1	0	0	arch_06s.jpg	0	0.0	0	152.37609004177202	152.426056115681	0.0499660739089904	164268
164.368	50	164	0	0	eagle	537	164	0	stimuli\eagle\eagle_12s.jpg	11	-1	0	0	eagle_12s.jpg	0	0.0	0	152.476104841008	152.526054335872	0.0499494948633128	164368
164.468	50	165	0	0	paper	1112	165	0	stimuli\paper\paper_10s.jpg	9	-1	0	0	paper_10s.jpg	0	0.0	0	152.57610257358	152.626078887488	0.0499763139077913	164468
164.568	50	166	0	0	apple_tree	31	166	0	stimuli\apple_tree\apple_tree_03s.jpg	2	-1	0	0	apple_tree_03s.jpg	0	0.0	0	152.676104450913	152.726100757199	0.0499963062861752	164568
164.668	50	167	0	0	shell1	1417	167	0	stimuli\shell1\shell1_03s.jpg	2	-1	0	0	shell1_03s.jpg	0	0.0	0	152.776108278722	152.82606533168	0.0499570529575522	164668
164.768	50	168	0	0	rocking_horse	1322	168	0	stimuli\rocking_horse\rocking_horse_11s.jpg	10	-1	0	0	rocking_horse_11s.jpg	0	0.0	0	152.876089188439	152.92606842806	0.0499792396215071	164768
164.868	50	169	0	0	jump_rope	858	169	0	stimuli\jump_rope\jump_rope_07s.jpg	6	-1	0	0	jump_rope_07s.jpg	0	0.0	0	152.976108132436	153.02609176062901	0.0499836281926491	164868
164.968	50	170	0	0	ice_cube	819	170	0	stimuli\ice_cube\ice_cube_03s.jpg	2	-1	0	0	ice_cube_03s.jpg	0	0.0	0	153.076110741198	153.126090224629	0.049979483431115995	164968
165.068	50	171	0	0	record	1295	171	0	stimuli\record\record_11s.jpg	10	-1	0	0	record_11s.jpg	0	0.0	0	153.176109936627	153.2260930772	0.0499831405734312	165068
165.168	50	172	0	0	hot_tub	804	172	0	stimuli\hot_tub\hot_tub_04s.jpg	3	-1	0	0	hot_tub_04s.jpg	0	0.0	0	153.27610498729402	153.326074474536	0.0499694872416967	165168
165.268	50	173	0	0	firetruck	596	173	0	stimuli\firetruck\firetruck_06s.jpg	5	-1	0	0	firetruck_06s.jpg	0	0.0	0	153.37611710462602	153.42608122805902	0.0499641234330284	165268
165.368	50	174	0	0	egg_roll	547	174	0	stimuli\egg_roll\egg_roll_02s.jpg	1	-1	0	0	egg_roll_02s.jpg	0	0.0	0	153.476118006721	153.526100659675	0.0499826529544407	165368
165.469	50	175	0	0	licorice	922	175	0	stimuli\licorice\licorice_03s.jpg	2	-1	0	0	licorice_03s.jpg	0	0.0	0	153.576122078339	153.626101317961	0.0499792396215071	165469
165.569	50	176	0	0	hobbyhorse	782	176	0	stimuli\hobbyhorse\hobbyhorse_05s.jpg	4	-1	0	0	hobbyhorse_05s.jpg	0	0.0	0	153.676120054721	153.726128551481	0.0500084967607108	165569
165.668	50	177	0	0	scraper	1387	177	0	stimuli\scraper\scraper_06s.jpg	5	-1	0	0	scraper_06s.jpg	0	0.0	0	153.776127783482	153.826107998341	0.0499802148597155	165668
165.769	50	178	0	0	stingray	1556	178	0	stimuli\stingray\stingray_04s.jpg	3	-1	0	0	stingray_04s.jpg	0	0.0	0	153.876117226531	153.926108900436	0.0499916739056516	165769
165.868	50	179	0	0	tumbleweed	1727	179	0	stimuli\tumbleweed\tumbleweed_01b.jpg	0	-1	0	0	tumbleweed_01b.jpg	0	0.0	0	153.976119103864	154.02611638538798	0.0499972815241563	165868
165.969	50	180	0	0	fuse	652	180	0	stimuli\fuse\fuse_02s.jpg	1	-1	0	0	fuse_02s.jpg	0	0.0	0	154.076137072623	154.12609924558	0.0499621729570663	165969
166.069	50	181	0	0	snake	1477	181	0	stimuli\snake\snake_07s.jpg	6	-1	0	0	snake_07s.jpg	0	0.0	0	154.176136755671	154.226127210529	0.049990454858289	166069
166.168	50	182	0	0	aluminum_foil	17	182	0	stimuli\aluminum_foil\aluminum_foil_10s.jpg	9	-1	0	0	aluminum_foil_10s.jpg	0	0.0	0	154.276123760625	154.326090322153	0.0499665615277536	166168
166.269	50	183	0	0	humvee	813	183	0	stimuli\humvee\humvee_08s.jpg	7	-1	0	0	humvee_08s.jpg	0	0.0	0	154.37611515415	154.426091711867	0.0499765577171729	166269
166.369	50	184	0	0	artichoke	39	184	0	stimuli\artichoke\artichoke_05n.jpg	4	-1	0	0	artichoke_05n.jpg	0	0.0	0	154.476121907673	154.52609334539102	0.0499714377176588	166369
166.469	50	185	0	0	mattress	985	185	0	stimuli\mattress\mattress_02s.jpg	1	-1	0	0	mattress_02s.jpg	0	0.0	0	154.576120127864	154.626095222724	0.0499750948602014	166469
166.569	50	186	0	0	loveseat	947	186	0	stimuli\loveseat\loveseat_11s.jpg	10	-1	0	0	loveseat_11s.jpg	0	0.0	0	154.676122249006	154.726107340055	0.0499850910493933	166569
166.669	50	187	0	0	tape_measure	1623	187	0	stimuli\tape_measure\tape_measure_11s.jpg	10	-1	0	0	tape_measure_11s.jpg	0	0.0	0	154.77615947871598	154.826144813575	0.0499853348587749	166669
166.769	50	188	0	0	blimp	139	188	0	stimuli\blimp\blimp_02n.jpg	1	-1	0	0	blimp_02n.jpg	0	0.0	0	154.87615794271602	154.926137913766	0.0499799710498792	166769
166.869	50	189	0	0	wine_bottle	1824	189	0	stimuli\wine_bottle\wine_bottle_09s.jpg	8	-1	0	0	wine_bottle_09s.jpg	0	0.0	0	154.976144703861	155.026108095865	0.0499633920044289	166869
166.969	50	190	0	0	wall	1775	190	0	stimuli\wall\wall_05s.jpg	4	-1	0	0	wall_05s.jpg	0	0.0	0	155.076132927862	155.126107778913	0.0499748510505924	166969
167.069	50	191	0	0	dartboard	474	191	0	stimuli\dartboard\dartboard_02s.jpg	1	-1	0	0	dartboard_02s.jpg	0	0.0	0	155.176136024243	155.226115507674	0.049979483431115995	167069
167.169	50	192	0	0	cane	258	192	0	stimuli\cane\cane_07s.jpg	6	-1	0	0	cane_07s.jpg	0	0.0	0	155.27617032823798	155.326150055479	0.049979727240725004	167169
167.269	50	193	0	0	ostrich	1084	193	0	stimuli\ostrich\ostrich_08s.jpg	7	-1	0	0	ostrich_08s.jpg	0	0.0	0	155.376169767477	155.426151932812	0.0499821653354502	167269
167.369	50	194	0	0	rubber_band	1337	194	0	stimuli\rubber_band\rubber_band_07s.jpg	6	-1	0	0	rubber_band_07s.jpg	0	0.0	0	155.476158722906	155.526124065387	0.0499653424806183	167369
167.469	50	195	0	0	pocket_watch	1206	195	0	stimuli\pocket_watch\pocket_watch_04s.jpg	3	-1	0	0	pocket_watch_04s.jpg	0	0.0	0	155.57614987262198	155.626122285578	0.0499724129558672	167469
167.569	50	196	0	0	cream	436	196	0	stimuli\cream\cream_02s.jpg	1	-1	0	0	cream_02s.jpg	0	0.0	0	155.676148580432	155.72613537814698	0.0499867977157464	167569
167.669	50	197	0	0	leggings	912	197	0	stimuli\leggings\leggings_05s.jpg	4	-1	0	0	leggings_05s.jpg	0	0.0	0	155.77618166538	155.826163099287	0.0499814339070781	167669
167.769	50	198	0	0	cardigan	273	198	0	stimuli\cardigan\cardigan_12s.jpg	11	-1	0	0	cardigan_12s.jpg	0	0.0	0	155.87618183604602	155.926164001382	0.0499821653354502	167769
167.869	50	199	0	0	clock	359	199	0	stimuli\clock\clock_02n.jpg	1	-1	0	0	clock_02n.jpg	0	0.0	0	155.976170791476	156.02613686538498	0.0499660739089904	167869
167.969	50	200	0	0	beachball	99	200	0	stimuli\beachball\beachball_07s.jpg	6	-1	0	0	beachball_07s.jpg	0	0.0	0	156.076160965954	156.12613874271798	0.0499777767647629	167969
168.069	50	201	0	0	button2	231	201	0	stimuli\button2\button2_12s.jpg	11	-1	0	0	button2_12s.jpg	0	0.0	0	156.17616430614402	156.22613696290898	0.0499726567652488	168069
168.169	50	202	0	0	boomerang	168	202	0	stimuli\boomerang\boomerang_10s.jpg	9	-1	0	0	boomerang_10s.jpg	0	0.0	0	156.276169109191	156.326140303099	0.0499711939082772	168169
168.269	50	203	0	0	beard	106	203	0	stimuli\beard\beard_12s.jpg	11	-1	0	0	beard_12s.jpg	0	0.0	0	156.37616806081002	156.42614364328898	0.0499755824789645	168269
168.369	50	204	0	0	desk	480	204	0	stimuli\desk\desk_02s.jpg	1	-1	0	0	desk_02s.jpg	0	0.0	0	156.47616920671499	156.526145276813	0.0499760700981824	168369
168.469	50	205	0	0	backgammon	48	205	0	stimuli\backgammon\backgammon_12s.jpg	11	-1	0	0	backgammon_12s.jpg	0	0.0	0	156.576177910714	156.626154468431	0.0499765577171729	168469
168.569	50	206	0	0	pelican	1140	206	0	stimuli\pelican\pelican_05s.jpg	4	-1	0	0	pelican_05s.jpg	0	0.0	0	156.676176130904	156.726150006717	0.0499738758126114	168569
168.669	50	207	0	0	shower_cap	1434	207	0	stimuli\shower_cap\shower_cap_06s.jpg	5	-1	0	0	shower_cap_06s.jpg	0	0.0	0	156.776182640618	156.826159685954	0.0499770453361634	168669
168.769	50	208	0	0	milk	1001	208	0	stimuli\milk\milk_12s.jpg	11	-1	0	0	milk_12s.jpg	0	0.0	0	156.876178666523	156.926154492812	0.0499758262885734	168769
168.869	50	209	0	0	beaker	101	209	0	stimuli\beaker\beaker_04s.jpg	3	-1	0	0	beaker_04s.jpg	0	0.0	0	156.976184200999	157.02616392823901	0.0499797272404976	168869
168.969	50	210	0	0	coconut	375	210	0	stimuli\coconut\coconut_01b.jpg	0	-1	0	0	coconut_01b.jpg	0	0.0	0	157.076188516427	157.12615873509702	0.0499702186702962	168969
169.069	50	211	0	0	glue	681	211	0	stimuli\glue\glue_07s.jpg	6	-1	0	0	glue_07s.jpg	0	0.0	0	157.17618673661698	157.226171096238	0.0499843596207938	169069
169.169	50	212	0	0	tapestry	1625	212	0	stimuli\tapestry\tapestry_11s.jpg	10	-1	0	0	tapestry_11s.jpg	0	0.0	0	157.276196172045	157.326210276424	0.0500141043792155	169169
169.269	50	213	0	0	footprint	632	213	0	stimuli\footprint\footprint_08s.jpg	7	-1	0	0	footprint_08s.jpg	0	0.0	0	157.376223161756	157.426185090903	0.0499619291476847	169269
169.369	50	214	0	0	bug	212	214	0	stimuli\bug\bug_08s.jpg	7	-1	0	0	bug_08s.jpg	0	0.0	0	157.476211385757	157.526179653951	0.0499682681943341	169369
169.469	50	215	0	0	cocktail	374	215	0	stimuli\cocktail\cocktail_10s.jpg	9	-1	0	0	cocktail_10s.jpg	0	0.0	0	157.57620107261602	157.62617324176202	0.0499721691462582	169469
169.569	50	216	0	0	bush	227	216	0	stimuli\bush\bush_10s.jpg	9	-1	0	0	bush_10s.jpg	0	0.0	0	157.676200755663	157.726184140046	0.0499833843828128	169569
169.669	50	217	0	0	cauliflower	288	217	0	stimuli\cauliflower\cauliflower_03s.jpg	2	-1	0	0	cauliflower_03s.jpg	0	0.0	0	157.776235791088	157.82619552595	0.0499597348618863	169669
169.769	50	218	0	0	sweet_potato	1595	218	0	stimuli\sweet_potato\sweet_potato_08s.jpg	7	-1	0	0	sweet_potato_08s.jpg	0	0.0	0	157.87623303604	157.926180824237	0.0499477881967323	169769
169.869	50	219	0	0	mouthpiece	1032	219	0	stimuli\mouthpiece\mouthpiece_12s.jpg	11	-1	0	0	mouthpiece_12s.jpg	0	0.0	0	157.97620760671	158.026216103471	0.0500084967609382	169869
169.969	50	220	0	0	wasp	1785	220	0	stimuli\wasp\wasp_01b.jpg	0	-1	0	0	wasp_01b.jpg	0	0.0	0	158.076241666896	158.12622261318398	0.0499809462880876	169969
170.069	50	221	0	0	bone	161	221	0	stimuli\bone\bone_08s.jpg	7	-1	0	0	bone_08s.jpg	0	0.0	0	158.176241837563	158.226222783851	0.0499809462880876	170069
170.169	50	222	0	0	pool_table	1222	222	0	stimuli\pool_table\pool_table_04s.jpg	3	-1	0	0	pool_table_04s.jpg	0	0.0	0	158.276250297753	158.326209301186	0.0499590034335142	170169
170.269	50	223	0	0	octopus	1070	223	0	stimuli\octopus\octopus_09s.jpg	8	-1	0	0	octopus_09s.jpg	0	0.0	0	158.37622706270798	158.426194599474	0.04996753676596201	170269
170.369	50	224	0	0	mongoose	1016	224	0	stimuli\mongoose\mongoose_01b.jpg	0	-1	0	0	mongoose_01b.jpg	0	0.0	0	158.476227720993	158.526203059663	0.0499753386695829	170369
170.469	50	225	0	0	oar	1068	225	0	stimuli\oar\oar_10s.jpg	9	-1	0	0	oar_10s.jpg	0	0.0	0	158.576226672612	158.626236144611	0.0500094719989193	170469
170.569	50	226	0	0	sickle	1441	226	0	stimuli\sickle\sickle_08s.jpg	7	-1	0	0	sickle_08s.jpg	0	0.0	0	158.676239277563	158.726237534325	0.0499982567621373	170569
170.669	50	227	0	0	umbrella	1743	227	0	stimuli\umbrella\umbrella_01b.jpg	0	-1	0	0	umbrella_01b.jpg	0	0.0	0	158.77625870918	158.82623868023	0.0499799710501065	170669
170.769	50	228	0	0	drink	521	228	0	stimuli\drink\drink_07s.jpg	6	-1	0	0	drink_07s.jpg	0	0.0	0	158.876260342704	158.926245189944	0.0499848472400117	170769
170.869	50	229	0	0	sequin	1404	229	0	stimuli\sequin\sequin_10s.jpg	9	-1	0	0	sequin_10s.jpg	0	0.0	0	158.976249785753	159.026215372042	0.0499655862897725	170869
170.969	50	230	0	0	rudder	1339	230	0	stimuli\rudder\rudder_05s.jpg	4	-1	0	0	rudder_05s.jpg	0	0.0	0	159.076239228801	159.126213348424	0.0499741196222203	170969
171.069	50	231	0	0	lighter	928	231	0	stimuli\lighter\lighter_05s.jpg	4	-1	0	0	lighter_05s.jpg	0	0.0	0	159.17623574232599	159.226231560993	0.0499958186671847	171069
171.169	50	232	0	0	log	943	232	0	stimuli\log\log_10s.jpg	9	-1	0	0	log_10s.jpg	0	0.0	0	159.276274191083	159.326251724038	0.0499775329551539	171169
171.269	50	233	0	0	rollerskate	1327	233	0	stimuli\rollerskate\rollerskate_01b.jpg	0	-1	0	0	rollerskate_01b.jpg	0	0.0	0	159.376271923654	159.426238241373	0.049966317718372	171269
171.369	50	234	0	0	helicopter	775	234	0	stimuli\helicopter\helicopter_03s.jpg	2	-1	0	0	helicopter_03s.jpg	0	0.0	0	159.47626234194098	159.526262061561	0.0499997196191089	171369
171.469	50	235	0	0	javelin	841	235	0	stimuli\javelin\javelin_03s.jpg	2	-1	0	0	javelin_03s.jpg	0	0.0	0	159.576263975465	159.626258575085	0.0499945996195947	171469
171.569	50	236	0	0	saltshaker	1350	236	0	stimuli\saltshaker\saltshaker_04s.jpg	3	-1	0	0	saltshaker_04s.jpg	0	0.0	0	159.676279749939	159.726265084798	0.0499853348590023	171569
171.669	50	237	0	0	windsock	1822	237	0	stimuli\windsock\windsock_08s.jpg	7	-1	0	0	windsock_08s.jpg	0	0.0	0	159.77628772251	159.82624818879998	0.0499604662904858	171669
171.769	50	238	0	0	cherry	316	238	0	stimuli\cherry\cherry_08s.jpg	7	-1	0	0	cherry_08s.jpg	0	0.0	0	159.87628764936701	159.92625152898998	0.0499638796234194	171769
171.869	50	239	0	0	grain	698	239	0	stimuli\grain\grain_04s.jpg	3	-1	0	0	grain_04s.jpg	0	0.0	0	159.976288795272	160.026270716798	0.0499819215260686	171869
171.969	50	240	0	0	book	165	240	0	stimuli\book\book_12s.jpg	11	-1	0	0	book_12s.jpg	0	0.0	0	160.076261903084	160.126241386515	0.049979483431115995	171969
172.069	50	241	0	0	comic_book	391	241	0	stimuli\comic_book\comic_book_11s.jpg	10	-1	0	0	comic_book_11s.jpg	0	0.0	0	160.176270850893	160.226278128606	0.0500072777135756	172069
172.169	50	242	0	0	outfit	1087	242	0	stimuli\outfit\outfit_10s.jpg	9	-1	0	0	outfit_10s.jpg	0	0.0	0	160.276301253937	160.326280737368	0.049979483431115995	172169
172.269	50	243	0	0	cheesecake	314	243	0	stimuli\cheesecake\cheesecake_06s.jpg	5	-1	0	0	cheesecake_06s.jpg	0	0.0	0	160.37629923031798	160.426283833748	0.0499846034304028	172269
172.369	50	244	0	0	cobra	371	244	0	stimuli\cobra\cobra_03s.jpg	2	-1	0	0	cobra_03s.jpg	0	0.0	0	160.476303789555	160.526285711082	0.0499819215260686	172369
172.469	50	245	0	0	vise	1765	245	0	stimuli\vise\vise_07s.jpg	6	-1	0	0	vise_07s.jpg	0	0.0	0	160.5762905507	160.626287344605	0.0499967939051658	172469
172.569	50	246	0	0	laundry_basket	902	246	0	stimuli\laundry_basket\laundry_basket_09s.jpg	8	-1	0	0	laundry_basket_09s.jpg	0	0.0	0	160.676293159461	160.72626971717898	0.0499765577171729	172569
172.669	50	247	0	0	graffiti	697	247	0	stimuli\graffiti\graffiti_12s.jpg	11	-1	0	0	graffiti_12s.jpg	0	0.0	0	160.776285040605	160.826262085941	0.0499770453359361	172669
172.769	50	248	0	0	fern	577	248	0	stimuli\fern\fern_04n.jpg	3	-1	0	0	fern_04n.jpg	0	0.0	0	160.876295451271	160.92626640137	0.0499709500986683	172769
172.869	50	249	0	0	dashboard	475	249	0	stimuli\dashboard\dashboard_05s.jpg	4	-1	0	0	dashboard_05s.jpg	0	0.0	0	160.976295621937	161.026299486318	0.0500038643804146	172869
172.969	50	250	0	0	ring	1313	250	0	stimuli\ring\ring_09s.jpg	8	-1	0	0	ring_09s.jpg	0	0.0	0	161.076317979268	161.126303070317	0.0499850910493933	172969
173.069	50	251	0	0	rack2	1269	251	0	stimuli\rack2\rack2_01s.jpg	0	-1	0	0	rack2_01s.jpg	0	0.0	0	161.17632180707702	161.226302265746	0.0499804586690971	173069
173.169	50	252	0	0	carriage	276	252	0	stimuli\carriage\carriage_05s.jpg	4	-1	0	0	carriage_05s.jpg	0	0.0	0	161.276328072981	161.32630365546	0.0499755824791919	173169
173.269	50	253	0	0	doorknocker	510	253	0	stimuli\doorknocker\doorknocker_02s.jpg	1	-1	0	0	doorknocker_02s.jpg	0	0.0	0	161.376309226507	161.426305776603	0.0499965500957842	173269
173.369	50	254	0	0	brownie	204	254	0	stimuli\brownie\brownie_06s.jpg	5	-1	0	0	brownie_06s.jpg	0	0.0	0	161.476326951457	161.526308385364	0.0499814339070781	173369
173.469	50	255	0	0	football	629	255	0	stimuli\football\football_07s.jpg	6	-1	0	0	football_07s.jpg	0	0.0	0	161.576331754505	161.626311481745	0.0499797272404976	173469
173.569	50	256	0	0	stained_glass	1531	256	0	stimuli\stained_glass\stained_glass_02s.jpg	1	-1	0	0	stained_glass_02s.jpg	0	0.0	0	161.67632339183902	161.72631433431602	0.0499909424772795	173569
173.669	50	257	0	0	revolver	1304	257	0	stimuli\revolver\revolver_08s.jpg	7	-1	0	0	revolver_08s.jpg	0	0.0	0	161.776339653932	161.82628914879498	0.0499494948633128	173669
173.769	50	258	0	0	puck	1245	258	0	stimuli\puck\puck_02s.jpg	1	-1	0	0	puck_02s.jpg	0	0.0	0	161.876314468411	161.926290538509	0.0499760700981824	173769
173.869	50	259	0	0	praying_mantis	1238	259	0	stimuli\praying_mantis\praying_mantis_04s.jpg	3	-1	0	0	praying_mantis_04s.jpg	0	0.0	0	161.976317564792	162.02629387870002	0.0499763139077913	173869
173.969	50	260	0	0	dice	486	260	0	stimuli\dice\dice_12s.jpg	11	-1	0	0	dice_12s.jpg	0	0.0	0	162.076344066884	162.126325256981	0.0499811900974692	173969
174.069	50	261	0	0	electric_chair	553	261	0	stimuli\electric_chair\electric_chair_08s.jpg	7	-1	0	0	electric_chair_08s.jpg	0	0.0	0	162.176331315647	162.226313968602	0.0499826529544407	174069
174.169	50	262	0	0	lollipop	945	262	0	stimuli\lollipop\lollipop_01b.jpg	0	-1	0	0	lollipop_01b.jpg	0	0.0	0	162.276350503455	162.326329011648	0.049978508193135	174169
174.269	50	263	0	0	bird	128	263	0	stimuli\bird\bird_03s.jpg	2	-1	0	0	bird_03s.jpg	0	0.0	0	162.376349942693	162.426331864219	0.0499819215258412	174269
174.369	50	264	0	0	coil	384	264	0	stimuli\coil\coil_03s.jpg	2	-1	0	0	coil_03s.jpg	0	0.0	0	162.476349381931	162.526338373932	0.0499889920015448	174369
174.469	50	265	0	0	credit_card	438	265	0	stimuli\credit_card\credit_card_01b.jpg	0	-1	0	0	credit_card_01b.jpg	0	0.0	0	162.576361011644	162.62633635031298	0.0499753386695829	174469
174.569	50	266	0	0	hearse	771	266	0	stimuli\hearse\hearse_06s.jpg	5	-1	0	0	hearse_06s.jpg	0	0.0	0	162.676346309931	162.726346517169	0.0500002072380994	174569
174.669	50	267	0	0	rain_gauge	1278	267	0	stimuli\rain_gauge\rain_gauge_04s.jpg	3	-1	0	0	rain_gauge_04s.jpg	0	0.0	0	162.776364278691	162.82634498117	0.049980702478705986	174669
174.769	50	268	0	0	perfume	1154	268	0	stimuli\perfume\perfume_08s.jpg	7	-1	0	0	perfume_08s.jpg	0	0.0	0	162.876365424596	162.926343932789	0.0499785081929076	174769
174.869	50	269	0	0	margarita	973	269	0	stimuli\margarita\margarita_10s.jpg	9	-1	0	0	margarita_10s.jpg	0	0.0	0	162.976368764786	163.026348735836	0.0499799710501065	174869
174.969	50	270	0	0	pliers	1201	270	0	stimuli\pliers\pliers_11s.jpg	10	-1	0	0	pliers_11s.jpg	0	0.0	0	163.07635186878798	163.126334034123	0.0499821653354502	174969
175.069	50	271	0	0	tadpole	1614	271	0	stimuli\tadpole\tadpole_09s.jpg	8	-1	0	0	tadpole_09s.jpg	0	0.0	0	163.176373007071	163.226356391454	0.0499833843828128	175069
175.169	50	272	0	0	stilt	1555	272	0	stimuli\stilt\stilt_04s.jpg	3	-1	0	0	stilt_04s.jpg	0	0.0	0	163.276379029165	163.32634242116998	0.0499633920044289	175169
175.269	50	273	0	0	lingerie	932	273	0	stimuli\lingerie\lingerie_01b.jpg	0	-1	0	0	lingerie_01b.jpg	0	0.0	0	163.376377980785	163.426358683263	0.0499807024784786	175269
175.369	50	274	0	0	shawl	1411	274	0	stimuli\shawl\shawl_11s.jpg	10	-1	0	0	shawl_11s.jpg	0	0.0	0	163.476381077165	163.52636373011998	0.0499826529544407	175369
175.469	50	275	0	0	chessboard	318	275	0	stimuli\chessboard\chessboard_07s.jpg	6	-1	0	0	chessboard_07s.jpg	0	0.0	0	163.576382954498	163.62636487602398	0.0499819215260686	175469
175.569	50	276	0	0	baton3	94	276	0	stimuli\baton3\baton3_11s.jpg	10	-1	0	0	baton3_11s.jpg	0	0.0	0	163.676386294688	163.726365046691	0.0499787520025166	175569
175.669	50	277	0	0	clipboard	355	277	0	stimuli\clipboard\clipboard_11s.jpg	10	-1	0	0	clipboard_11s.jpg	0	0.0	0	163.776391585354	163.826372287833	0.0499807024784786	175669
175.769	50	278	0	0	toad	1664	278	0	stimuli\toad\toad_09s.jpg	8	-1	0	1	toad_09s.jpg	0	0.0	0	163.876390293164	163.92635758612	0.049967292956353	175769
175.869	50	279	0	0	column	388	279	0	stimuli\column\column_05s.jpg	4	-1	0	0	column_05s.jpg	0	0.0	0	163.976395827639	164.026347760598	0.0499519329582654	175869
175.969	50	280	0	0	soy_sauce	1500	280	0	stimuli\soy_sauce\soy_sauce_02s.jpg	1	-1	0	0	soy_sauce_02s.jpg	0	0.0	0	164.076374543071	164.12635670840598	0.0499821653354502	175969
176.069	50	281	0	0	curling_iron	463	281	0	stimuli\curling_iron\curling_iron_03s.jpg	2	-1	0	0	curling_iron_03s.jpg	0	0.0	0	164.17638080897498	164.226352734311	0.0499719253366493	176069
176.169	50	282	0	0	anteater	25	282	0	stimuli\anteater\anteater_10s.jpg	9	-1	0	0	anteater_10s.jpg	0	0.0	0	164.276382686308	164.326364851643	0.0499821653356776	176169
176.269	50	283	0	0	deodorant	479	283	0	stimuli\deodorant\deodorant_03s.jpg	2	-1	0	0	deodorant_03s.jpg	0	0.0	0	164.376387001736	164.42635673278699	0.0499697310513056	176269
176.369	50	284	0	0	eye_patch	565	284	0	stimuli\eye_patch\eye_patch_04s.jpg	3	-1	0	0	eye_patch_04s.jpg	0	0.0	0	164.476395461925	164.526365436786	0.0499699748606872	176369
176.469	50	285	0	0	swing	1598	285	0	stimuli\swing\swing_05s.jpg	4	-1	0	0	swing_05s.jpg	0	0.0	0	164.57639124402098	164.62636487602398	0.0499736320032298	176469
176.569	50	286	0	0	violin	1764	286	0	stimuli\violin\violin_03n.jpg	2	-1	0	0	violin_03n.jpg	0	0.0	0	164.676397266115	164.72637528669	0.0499780205741445	176569
176.669	50	287	0	0	screwdriver	1391	287	0	stimuli\screwdriver\screwdriver_01s.jpg	0	-1	0	0	screwdriver_01s.jpg	0	0.0	0	164.776383052022	164.826355464978	0.0499724129558672	176669
176.769	50	288	0	0	radio	1273	288	0	stimuli\radio\radio_09s.jpg	8	-1	0	0	radio_09s.jpg	0	0.0	0	164.87640882268602	164.926402203258	0.0499933805722321	176769
176.869	50	289	0	0	stair	1532	289	0	stimuli\stair\stair_10s.jpg	9	-1	0	0	stair_10s.jpg	0	0.0	0	164.976426060017	165.026398716782	0.0499726567652488	176869
176.969	50	290	0	0	pitcher	1190	290	0	stimuli\pitcher\pitcher_09s.jpg	8	-1	0	0	pitcher_09s.jpg	0	0.0	0	165.07642257354098	165.12639206078302	0.0499694872419241	176969
177.069	50	291	0	0	dirt_bike	488	291	0	stimuli\dirt_bike\dirt_bike_09s.jpg	8	-1	0	0	dirt_bike_09s.jpg	0	0.0	0	165.176411285161	165.22640978573298	0.0499985005717463	177069
177.169	50	292	0	0	ginger	673	292	0	stimuli\ginger\ginger_12s.jpg	11	-1	0	0	ginger_12s.jpg	0	0.0	0	165.27642974154	165.326393133545	0.0499633920044289	177169
177.269	50	293	0	0	earring	540	293	0	stimuli\earring\earring_04n.jpg	3	-1	0	0	earring_04n.jpg	0	0.0	0	165.376434788397	165.426399155639	0.0499643672424099	177269
177.369	50	294	0	0	diaper	485	294	0	stimuli\diaper\diaper_05s.jpg	4	-1	0	0	diaper_05s.jpg	0	0.0	0	165.476416429542	165.52638933011602	0.0499729005746303	177369
177.469	50	295	0	0	first-aid_kit	599	295	0	stimuli\first-aid_kit\first-aid_kit_06s.jpg	5	-1	0	0	first-aid_kit_06s.jpg	0	0.0	0	165.576416600208	165.626395108402	0.049978508193135	177469
177.569	50	296	0	0	maple_syrup	971	296	0	stimuli\maple_syrup\maple_syrup_12s.jpg	11	-1	0	0	maple_syrup_12s.jpg	0	0.0	0	165.676419696589	165.726421610493	0.0500019139044525	177569
177.669	50	297	0	0	peach	1129	297	0	stimuli\peach\peach_04s.jpg	3	-1	0	0	peach_04s.jpg	0	0.0	0	165.776443272967	165.826419343065	0.0499760700981824	177669
177.769	50	298	0	0	ferret	578	298	0	stimuli\ferret\ferret_11s.jpg	10	-1	0	0	ferret_11s.jpg	0	0.0	0	165.876446856967	165.92640537278098	0.0499585158145237	177769
177.869	50	299	0	0	balloon	60	299	0	stimuli\balloon\balloon_07s.jpg	6	-1	0	0	balloon_07s.jpg	0	0.0	0	165.976432642873	166.0264094444	0.0499768015265545	177869
177.969	50	300	0	0	dog	495	300	0	stimuli\dog\dog_12s.jpg	11	-1	0	0	dog_12s.jpg	0	0.0	0	166.076428668778	166.12641278459	0.0499841158114123	177969
178.069	50	301	0	0	grass	705	301	0	stimuli\grass\grass_11s.jpg	10	-1	0	0	grass_11s.jpg	0	0.0	0	166.176439810872	166.226414418113	0.0499746072412108	178069
178.169	50	302	0	0	top_hat	1682	302	0	stimuli\top_hat\top_hat_06s.jpg	5	-1	0	0	top_hat_06s.jpg	0	0.0	0	166.276435349158	166.32641093163798	0.0499755824791919	178169
178.269	50	303	0	0	water_heater	1791	303	0	stimuli\water_heater\water_heater_02s.jpg	1	-1	0	0	water_heater_02s.jpg	0	0.0	0	166.37643186268298	166.426431338492	0.0499994758094999	178269
178.369	50	304	0	0	photograph	1164	304	0	stimuli\photograph\photograph_09s.jpg	8	-1	0	0	photograph_09s.jpg	0	0.0	0	166.476440322872	166.526418343446	0.0499780205741445	178369
178.469	50	305	0	0	train_car	1699	305	0	stimuli\train_car\train_car_02s.jpg	1	-1	0	0	train_car_02s.jpg	0	0.0	0	166.57643976211	166.62641973316002	0.0499799710501065	178469
178.569	50	306	0	0	crown	448	306	0	stimuli\crown\crown_07s.jpg	6	-1	0	0	crown_07s.jpg	0	0.0	0	166.676447247062	166.726424292398	0.0499770453361634	178569
178.669	50	307	0	0	handcuff	746	307	0	stimuli\handcuff\handcuff_07s.jpg	6	-1	0	0	handcuff_07s.jpg	0	0.0	0	166.776456926299	166.826425925922	0.0499689996229336	178669
178.769	50	308	0	0	cutting_board	467	308	0	stimuli\cutting_board\cutting_board_10s.jpg	9	-1	0	0	cutting_board_10s.jpg	0	0.0	0	166.876453927442	166.926440237539	0.0499863100969833	178769
187.686	50	309	0	0	videocassette	1761	0	1	stimuli\videocassette\videocassette_11n.jpg	10	-1	1	0	videocassette_11n.jpg	0	0.0	0	175.793357556619	175.843330944813	0.0499733881936208	187686
187.786	50	310	0	0	toothpick	1681	1	1	stimuli\toothpick\toothpick_07s.jpg	6	-1	1	0	toothpick_07s.jpg	0	0.0	0	175.893352363477	175.943332334527	0.0499799710501065	187786
187.886	50	311	0	0	tennis_ball	1642	2	1	stimuli\tennis_ball\tennis_ball_06s.jpg	5	-1	1	0	tennis_ball_06s.jpg	0	0.0	0	175.993354972239	176.043333236622	0.0499782643837534	187886
187.986	50	312	0	0	board_game	153	3	1	stimuli\board_game\board_game_01b.jpg	0	-1	1	0	board_game_01b.jpg	0	0.0	0	176.093358068619	176.143336089193	0.0499780205739171	187986
188.086	50	313	0	0	wig	1816	4	1	stimuli\wig\wig_03s.jpg	2	-1	1	0	wig_03s.jpg	0	0.0	0	176.193360189762	176.24334674366798	0.0499865539063649	188086
188.186	50	314	0	0	hair	733	5	1	stimuli\hair\hair_07s.jpg	6	-1	1	0	hair_07s.jpg	0	0.0	0	176.29336474899898	176.34336885718898	0.0500041081900235	188186
188.286	50	315	0	0	windshield	1820	6	1	stimuli\windshield\windshield_05s.jpg	4	-1	1	0	windshield_05s.jpg	0	0.0	0	176.39339173871102	176.44337292880797	0.0499811900974692	188286
188.386	50	316	0	0	light_switch	926	7	1	stimuli\light_switch\light_switch_12s.jpg	11	-1	1	0	light_switch_12s.jpg	0	0.0	0	176.493393128424	176.54337188042703	0.0499787520027439	188386
188.486	50	317	0	0	gyroscope	731	8	1	stimuli\gyroscope\gyroscope_03s.jpg	2	-1	1	0	gyroscope_03s.jpg	0	0.0	0	176.59339524956698	176.643374732998	0.049979483431115995	188486
188.586	50	318	0	0	truck	1720	9	1	stimuli\truck\truck_03s.jpg	2	-1	1	0	truck_03s.jpg	0	0.0	0	176.693384692616	176.743360762714	0.0499760700981824	188586
188.686	50	319	0	0	mandolin	965	10	1	stimuli\mandolin\mandolin_04s.jpg	3	-1	1	0	mandolin_04s.jpg	0	0.0	0	176.793379743283	176.843360201952	0.0499804586690971	188686
188.786	50	320	0	0	periscope	1155	11	1	stimuli\periscope\periscope_08s.jpg	7	-1	1	0	periscope_08s.jpg	0	0.0	0	176.89338527775902	176.94336476119	0.049979483431115995	188786
188.886	50	321	0	0	jet	847	12	1	stimuli\jet\jet_02s.jpg	1	-1	1	0	jet_02s.jpg	0	0.0	0	176.993389105568	177.04336712614202	0.0499780205739171	188886
188.986	50	322	0	0	dip	487	13	1	stimuli\dip\dip_09s.jpg	8	-1	1	0	dip_09s.jpg	0	0.0	0	177.09338878861598	177.143361445381	0.0499726567652488	188986
189.086	50	323	0	0	whistle	1812	14	1	stimuli\whistle\whistle_01b.jpg	0	-1	1	0	whistle_01b.jpg	0	0.0	0	177.19339554213798	177.24339428652002	0.0499987443811278	189086
189.186	50	324	0	0	bunkbed	222	15	1	stimuli\bunkbed\bunkbed_05s.jpg	4	-1	1	0	bunkbed_05s.jpg	0	0.0	0	177.293412048041	177.34337836576	0.049966317718372	189186
189.286	50	325	0	0	chip	333	16	1	stimuli\chip\chip_11n.jpg	10	-1	1	0	chip_11n.jpg	0	0.0	0	177.393419045374	177.44338414404498	0.0499650986710094	189286
189.386	50	326	0	0	noose	1062	17	1	stimuli\noose\noose_10s.jpg	9	-1	1	0	noose_10s.jpg	0	0.0	0	177.493419703659	177.543388215663	0.049968512003943	189386
189.486	50	327	0	0	bamboo	62	18	1	stimuli\bamboo\bamboo_10s.jpg	9	-1	1	0	bamboo_10s.jpg	0	0.0	0	177.59342206861197	177.643387411092	0.049965342480391	189486
189.586	50	328	0	0	flour	618	19	1	stimuli\flour\flour_05s.jpg	4	-1	1	0	flour_05s.jpg	0	0.0	0	177.693402490709	177.743387337949	0.0499848472400117	189586
189.686	50	329	0	0	recorder	1297	20	1	stimuli\recorder\recorder_04s.jpg	3	-1	1	0	recorder_04s.jpg	0	0.0	0	177.793407781375	177.84338385147302	0.0499760700981824	189686
189.786	50	330	0	0	pants	1108	21	1	stimuli\pants\pants_02s.jpg	1	-1	1	0	pants_02s.jpg	0	0.0	0	177.893404294899	177.943384753568	0.0499804586688697	189786
189.886	50	331	0	0	block	143	22	1	stimuli\block\block_11s.jpg	10	-1	1	1	block_11s.jpg	0	0.0	0	177.99340934175598	178.043396627091	0.049987285334737	189886
189.986	50	332	0	0	plant	1194	23	1	stimuli\plant\plant_08s.jpg	7	-1	1	0	plant_08s.jpg	0	0.0	0	178.09341097528	178.143391677758	0.0499807024784786	189986
190.086	50	333	0	0	salami	1349	24	1	stimuli\salami\salami_10s.jpg	9	-1	1	0	salami_10s.jpg	0	0.0	0	178.193399930709	178.243402088423	0.0500021577140615	190086
190.186	50	334	0	0	hairnet	736	25	1	stimuli\hairnet\hairnet_05s.jpg	4	-1	1	0	hairnet_05s.jpg	0	0.0	0	178.293419606136	178.343421276231	0.0500016700950709	190186
190.286	50	335	0	0	cookie_cutter	401	26	1	stimuli\cookie_cutter\cookie_cutter_05s.jpg	4	-1	1	0	cookie_cutter_05s.jpg	0	0.0	0	178.39343855013303	178.44339950404301	0.0499609539094763	190286
190.386	50	336	0	0	undershirt	1744	27	1	stimuli\undershirt\undershirt_08s.jpg	7	-1	1	0	undershirt_08s.jpg	0	0.0	0	178.49342677413503	178.543391628996	0.0499648548614005	190386
190.486	50	337	0	0	sewage	1405	28	1	stimuli\sewage\sewage_12s.jpg	11	-1	1	0	sewage_12s.jpg	0	0.0	0	178.593423775278	178.643431052991	0.0500072777135756	190486
190.586	50	338	0	0	projector	1242	29	1	stimuli\projector\projector_10s.jpg	9	-1	1	0	projector_10s.jpg	0	0.0	0	178.693445888799	178.743425128421	0.0499792396215071	190586
190.686	50	339	0	0	wedding_cake	1800	30	1	stimuli\wedding_cake\wedding_cake_08s.jpg	7	-1	1	0	wedding_cake_08s.jpg	0	0.0	0	178.79344679089402	178.843431394325	0.0499846034304028	190686
190.786	50	340	0	0	stamp2	1536	31	1	stimuli\stamp2\stamp2_06s.jpg	5	-1	1	0	stamp2_06s.jpg	0	0.0	0	178.89344818060798	178.94341498594602	0.0499668053373625	190786
190.886	50	341	0	0	caviar	289	32	1	stimuli\caviar\caviar_10s.jpg	9	-1	1	0	caviar_10s.jpg	0	0.0	0	178.99345493413102	179.0434019909	0.0499470567683602	190886
190.986	50	342	0	0	cabinet	233	33	1	stimuli\cabinet\cabinet_08s.jpg	7	-1	1	0	cabinet_08s.jpg	0	0.0	0	179.09342633527802	179.143404355852	0.0499780205741445	190986
191.086	50	343	0	0	rocking_chair	1321	34	1	stimuli\rocking_chair\rocking_chair_08s.jpg	7	-1	1	0	rocking_chair_08s.jpg	0	0.0	0	179.19346356498698	179.243438903657	0.0499753386695829	191086
191.186	50	344	0	0	notebook	1064	35	1	stimuli\notebook\notebook_06s.jpg	5	-1	1	0	notebook_06s.jpg	0	0.0	0	179.293431065182	179.343446144799	0.0500150796174239	191186
191.286	50	345	0	0	spider_web	1514	36	1	stimuli\spider_web\spider_web_12s.jpg	11	-1	1	0	spider_web_12s.jpg	0	0.0	0	179.39346585679698	179.443425835468	0.0499599786714953	191286
191.386	50	346	0	0	wine_cooler	1825	37	1	stimuli\wine_cooler\wine_cooler_01b.jpg	0	-1	1	0	wine_cooler_01b.jpg	0	0.0	0	179.493440183657	179.54341186518397	0.0499716815272677	191386
191.486	50	347	0	0	dreidel	517	38	1	stimuli\dreidel\dreidel_08s.jpg	7	-1	1	0	dreidel_08s.jpg	0	0.0	0	179.593437916229	179.643424713945	0.0499867977159738	191486
191.586	50	348	0	0	pulpit	1251	39	1	stimuli\pulpit\pulpit_06s.jpg	5	-1	1	0	pulpit_06s.jpg	0	0.0	0	179.69344783927502	179.74344999698897	0.0500021577140615	191586
191.686	50	349	0	0	razor	1290	40	1	stimuli\razor\razor_12s.jpg	11	-1	1	0	razor_12s.jpg	0	0.0	0	179.793472390891	179.843448460989	0.0499760700981824	191686
191.786	50	350	0	0	siren	1448	41	1	stimuli\siren\siren_12s.jpg	11	-1	1	0	siren_12s.jpg	0	0.0	0	179.893473292986	179.94342839546798	0.0499551024815901	191786
191.886	50	351	0	0	hatbox	758	42	1	stimuli\hatbox\hatbox_01b.jpg	0	-1	1	0	hatbox_01b.jpg	0	0.0	0	179.993447863656	180.04342612804	0.049978264383526	191886
191.986	50	352	0	0	chick	321	43	1	stimuli\chick\chick_01b.jpg	0	-1	1	0	chick_01b.jpg	0	0.0	0	180.09345047241797	180.14343141870603	0.0499809462880876	191986
192.086	50	353	0	0	face	569	44	1	stimuli\face\face_02s.jpg	1	-1	1	0	face_02s.jpg	0	0.0	0	180.193455763084	180.24343817222802	0.0499824091448318	192086
192.186	50	354	0	0	nose	1063	45	1	stimuli\nose\nose_09s.jpg	8	-1	1	0	nose_09s.jpg	0	0.0	0	180.293457640417	180.343435417181	0.0499777767647629	192186
192.286	50	355	0	0	leopard	917	46	1	stimuli\leopard\leopard_07s.jpg	6	-1	1	0	leopard_07s.jpg	0	0.0	0	180.393495113936	180.443477766891	0.0499826529546681	192286
192.386	50	356	0	0	finger	588	47	1	stimuli\finger\finger_06s.jpg	5	-1	1	0	finger_06s.jpg	0	0.0	0	180.49348845793702	180.54345721375	0.0499687558133246	192386
192.486	50	357	0	0	chips	335	48	1	stimuli\chips\chips_11s.jpg	10	-1	1	0	chips_11s.jpg	0	0.0	0	180.593493260984	180.64347591393798	0.0499826529546681	192486
192.586	50	358	0	0	file1	583	49	1	stimuli\file1\file1_05s.jpg	4	-1	1	0	file1_05s.jpg	0	0.0	0	180.69349684498297	180.743463162702	0.049966317718372	192586
192.686	50	359	0	0	pipe1	1186	50	1	stimuli\pipe1\pipe1_05s.jpg	4	-1	1	0	pipe1_05s.jpg	0	0.0	0	180.793500185173	180.843482838128	0.0499826529546681	192686
192.786	50	360	0	0	celery	291	51	1	stimuli\celery\celery_04s.jpg	3	-1	1	0	celery_04s.jpg	0	0.0	0	180.893484508223	180.943486665937	0.0500021577140615	192786
192.886	50	361	0	0	hip	780	52	1	stimuli\hip\hip_01b.jpg	0	-1	1	0	hip_01b.jpg	0	0.0	0	180.993504915078	181.04348415469897	0.0499792396215071	192886
192.986	50	362	0	0	pulley	1250	53	1	stimuli\pulley\pulley_02s.jpg	1	-1	1	0	pulley_02s.jpg	0	0.0	0	181.09349313907902	181.143492858698	0.0499997196191089	192986
193.086	50	363	0	0	apron	33	54	1	stimuli\apron\apron_05s.jpg	4	-1	1	0	apron_05s.jpg	0	0.0	0	181.193512570696	181.243477181748	0.0499646110520189	193086
193.186	50	364	0	0	bobsled	155	55	1	stimuli\bobsled\bobsled_11s.jpg	10	-1	1	0	bobsled_11s.jpg	0	0.0	0	181.29351127850498	181.34346930670102	0.0499580281957606	193186
193.286	50	365	0	0	diving_board	494	56	1	stimuli\diving_board\diving_board_11s.jpg	10	-1	1	0	diving_board_11s.jpg	0	0.0	0	181.393518763457	181.443496784031	0.0499780205741445	193286
193.386	50	366	0	0	meatloaf	990	57	1	stimuli\meatloaf\meatloaf_07s.jpg	6	-1	1	0	meatloaf_07s.jpg	0	0.0	0	181.493500648412	181.543498905173	0.0499982567619099	193386
193.486	50	367	0	0	aircraft_carrier	9	58	1	stimuli\aircraft_carrier\aircraft_carrier_01b.jpg	0	-1	1	0	aircraft_carrier_01b.jpg	0	0.0	0	181.593516910505	181.64350565869702	0.0499887481919359	193486
193.586	50	368	0	0	door	506	59	1	stimuli\door\door_09s.jpg	8	-1	1	0	door_09s.jpg	0	0.0	0	181.693525370694	181.743505829363	0.0499804586690971	193586
193.686	50	369	0	0	steak	1544	60	1	stimuli\steak\steak_09s.jpg	8	-1	1	0	steak_09s.jpg	0	0.0	0	181.793524078504	181.843489664794	0.0499655862897725	193686
193.786	50	370	0	0	melon	994	61	1	stimuli\melon\melon_01b.jpg	0	-1	1	0	melon_01b.jpg	0	0.0	0	181.89352693107497	181.943510559267	0.0499836281926491	193786
193.886	50	371	0	0	memory_stick	995	62	1	stimuli\memory_stick\memory_stick_10s.jpg	9	-1	1	0	memory_stick_10s.jpg	0	0.0	0	181.99353100269403	182.043509998505	0.0499789958118981	193886
193.986	50	372	0	0	catapult	285	63	1	stimuli\catapult\catapult_01b.jpg	0	-1	1	0	catapult_01b.jpg	0	0.0	0	182.09353190478902	182.143516995838	0.0499850910496207	193986
194.086	50	373	0	0	palette	1100	64	1	stimuli\palette\palette_07s.jpg	6	-1	1	0	palette_07s.jpg	0	0.0	0	182.19353914593103	182.243501806507	0.0499626605760568	194086
194.186	50	374	0	0	uniform	1747	65	1	stimuli\uniform\uniform_04s.jpg	3	-1	1	0	uniform_04s.jpg	0	0.0	0	182.29353712231202	182.343503196221	0.0499660739087631	194186
194.286	50	375	0	0	potato	1231	66	1	stimuli\potato\potato_03n.jpg	2	-1	1	0	potato_03n.jpg	0	0.0	0	182.393541925359	182.44350702403	0.0499650986710094	194286
194.386	50	376	0	0	grits	717	67	1	stimuli\grits\grits_02s.jpg	1	-1	1	0	grits_02s.jpg	0	0.0	0	182.49354331507303	182.543524992789	0.0499816777164597	194386
194.486	50	377	0	0	breadstick	196	68	1	stimuli\breadstick\breadstick_08s.jpg	7	-1	1	0	breadstick_08s.jpg	0	0.0	0	182.59354470478698	182.643516142505	0.0499714377176588	194486
194.586	50	378	0	0	pretzel	1239	69	1	stimuli\pretzel\pretzel_05s.jpg	4	-1	1	0	pretzel_05s.jpg	0	0.0	0	182.693549507834	182.7435170446	0.04996753676596201	194586
194.686	50	379	0	0	revolving_door	1305	70	1	stimuli\revolving_door\revolving_door_01b.jpg	0	-1	1	0	revolving_door_01b.jpg	0	0.0	0	182.793551141358	182.843515996219	0.0499648548614005	194686
194.786	50	380	0	0	root	1331	71	1	stimuli\root\root_11s.jpg	10	-1	1	0	root_11s.jpg	0	0.0	0	182.89355862630902	182.94353591545502	0.049977289145545	194786
194.886	50	381	0	0	button1	230	72	1	stimuli\button1\button1_12s.jpg	11	-1	1	0	button1_12s.jpg	0	0.0	0	182.993556115071	183.043538768026	0.0499826529544407	194886
194.986	50	382	0	0	grapefruit	703	73	1	stimuli\grapefruit\grapefruit_09s.jpg	8	-1	1	0	grapefruit_09s.jpg	0	0.0	0	183.093542144787	183.143542839644	0.0500006948570899	194986
195.086	50	383	0	0	ram	1282	74	1	stimuli\ram\ram_08s.jpg	7	-1	1	0	ram_08s.jpg	0	0.0	0	183.19356279545102	183.24352740650397	0.0499646110520189	195086
195.186	50	384	0	0	coal	367	75	1	stimuli\coal\coal_12s.jpg	11	-1	1	0	coal_12s.jpg	0	0.0	0	183.293550288024	183.34354781335801	0.0499975253337652	195186
195.286	50	385	0	0	sandcastle	1355	76	1	stimuli\sandcastle\sandcastle_04s.jpg	3	-1	1	0	sandcastle_04s.jpg	0	0.0	0	183.393564843451	183.44353750021702	0.0499726567652488	195286
195.386	50	386	0	0	volleyball	1767	77	1	stimuli\volleyball\volleyball_09s.jpg	8	-1	1	0	volleyball_09s.jpg	0	0.0	0	183.493550629358	183.543522310885	0.0499716815272677	195386
195.486	50	387	0	0	steamroller	1545	78	1	stimuli\steamroller\steamroller_11n.jpg	10	-1	1	0	steamroller_11n.jpg	0	0.0	0	183.593545923834	183.643527113932	0.0499811900976965	195486
195.586	50	388	0	0	ping-pong_table	1184	79	1	stimuli\ping-pong_table\ping-pong_table_09s.jpg	8	-1	1	0	ping-pong_table_09s.jpg	0	0.0	0	183.693550970691	183.74352582174197	0.0499748510508198	195586
195.686	50	389	0	0	corn	412	80	1	stimuli\corn\corn_04s.jpg	3	-1	1	0	corn_04s.jpg	0	0.0	0	183.793547971834	183.843528674313	0.049980702478705986	195686
195.786	50	390	0	0	grape	702	81	1	stimuli\grape\grape_08s.jpg	7	-1	1	0	grape_08s.jpg	0	0.0	0	183.8935532625	183.94356736688	0.0500141043792155	195786
195.886	50	391	0	0	clipper2	357	82	1	stimuli\clipper2\clipper2_04s.jpg	3	-1	1	0	clipper2_04s.jpg	0	0.0	0	183.99358098364	184.043547301358	0.049966317718372	195886
195.986	50	392	0	0	pot	1230	83	1	stimuli\pot\pot_05s.jpg	4	-1	1	0	pot_05s.jpg	0	0.0	0	184.093568476213	184.143551860596	0.0499833843828128	195986
196.086	50	393	0	0	kangaroo	862	84	1	stimuli\kangaroo\kangaroo_01b.jpg	0	-1	1	1	kangaroo_01b.jpg	0	0.0	0	184.193589126877	184.24355398173802	0.0499648548616278	196086
196.186	50	394	0	0	dandelion	472	85	1	stimuli\dandelion\dandelion_01s.jpg	0	-1	1	0	dandelion_01s.jpg	0	0.0	0	184.29359197944802	184.343555371452	0.0499633920044289	196186
196.286	50	395	0	0	television	1641	86	1	stimuli\television\television_08s.jpg	7	-1	1	0	television_08s.jpg	0	0.0	0	184.393573376783	184.44357650973598	0.0500031329520425	196286
196.386	50	396	0	0	sunflower	1584	87	1	stimuli\sunflower\sunflower_03s.jpg	2	-1	1	0	sunflower_03s.jpg	1	0.34190746308195197	1	184.493593783638	184.54357789944999	0.0499841158114123	196386
196.486	50	397	0	0	sofa_bed	1492	88	1	stimuli\sofa_bed\sofa_bed_12s.jpg	11	-1	1	0	sofa_bed_12s.jpg	0	0.0	0	184.59360736382703	184.643561003452	0.0499536396246185	196486
196.586	50	398	0	0	penguin	1145	89	1	stimuli\penguin\penguin_02s.jpg	1	-1	1	0	penguin_02s.jpg	0	0.0	0	184.69360655925598	184.743566050308	0.0499594910525047	196586
196.686	50	399	0	0	binder	126	90	1	stimuli\binder\binder_02s.jpg	1	-1	1	0	binder_02s.jpg	0	0.0	0	184.793602585161	184.843594015257	0.0499914300962701	196686
196.786	50	400	0	0	magnifying_glass	958	91	1	stimuli\magnifying_glass\magnifying_glass_02s.jpg	1	-1	1	0	magnifying_glass_02s.jpg	0	0.0	0	184.89360860725498	184.94358638402	0.0499777767647629	196786
196.886	50	401	0	0	pancake	1104	92	1	stimuli\pancake\pancake_05s.jpg	4	-1	1	0	pancake_05s.jpg	0	0.0	0	184.993608046494	185.043588748972	0.0499807024784786	196886
196.986	50	402	0	0	handbrake	745	93	1	stimuli\handbrake\handbrake_01b.jpg	0	-1	1	0	handbrake_01b.jpg	0	0.0	0	185.093604316208	185.143567464403	0.0499631481950473	196986
197.086	50	403	0	0	foot	628	94	1	stimuli\foot\foot_09s.jpg	8	-1	1	0	foot_09s.jpg	0	0.0	0	185.193590102115	185.243569585546	0.049979483431115995	197086
197.186	50	404	0	0	coral	406	95	1	stimuli\coral\coral_06s.jpg	5	-1	1	0	coral_06s.jpg	0	0.0	0	185.29359027278198	185.343559516214	0.0499692434323151	197186
197.286	50	405	0	0	mallet	962	96	1	stimuli\mallet\mallet_04s.jpg	3	-1	1	0	mallet_04s.jpg	0	0.0	0	185.393589224401	185.443577972592	0.0499887481919359	197286
197.386	50	406	0	0	saw	1366	97	1	stimuli\saw\saw_09s.jpg	8	-1	1	0	saw_09s.jpg	0	0.0	0	185.493596709352	185.54356765945099	0.0499709500988956	197386
197.486	50	407	0	0	dolly	501	98	1	stimuli\dolly\dolly_07s.jpg	6	-1	1	0	dolly_07s.jpg	0	0.0	0	185.59361224001702	185.64357953297298	0.049967292956353	197486
197.586	50	408	0	0	rollerblade	1326	99	1	stimuli\rollerblade\rollerblade_08s.jpg	7	-1	1	0	rollerblade_08s.jpg	0	0.0	0	185.69363264687098	185.743606766494	0.0499741196222203	197586
197.686	50	409	0	0	chisel	336	100	1	stimuli\chisel\chisel_01b.jpg	0	-1	1	0	chisel_01b.jpg	0	0.0	0	185.79362087087299	185.843598647638	0.0499777767647629	197686
197.786	50	410	0	0	painting	1098	101	1	stimuli\painting\painting_05s.jpg	4	-1	1	0	painting_05s.jpg	0	0.0	0	185.893629087253	185.943616860207	0.0499877729537275	197786
197.886	50	411	0	0	air_pump	6	102	1	stimuli\air_pump\air_pump_12s.jpg	11	-1	1	0	air_pump_12s.jpg	0	0.0	0	185.99361926173	186.043616543255	0.0499972815241563	197886
197.986	50	412	0	0	fence	575	103	1	stimuli\fence\fence_07s.jpg	6	-1	1	0	fence_07s.jpg	0	0.0	0	186.093630647634	186.143619395825	0.0499887481917085	197986
198.086	50	413	0	0	school_bus	1378	104	1	stimuli\school_bus\school_bus_05s.jpg	4	-1	1	0	school_bus_05s.jpg	0	0.0	0	186.193641058299	186.24362078554	0.0499797272404976	198086
198.186	50	414	0	0	cassette	283	105	1	stimuli\cassette\cassette_06s.jpg	5	-1	1	0	cassette_06s.jpg	0	0.0	0	186.293626112777	186.343648750489	0.0500226377116633	198186
198.286	50	415	0	0	pen	1141	106	1	stimuli\pen\pen_05s.jpg	4	-1	1	0	pen_05s.jpg	0	0.0	0	186.393645788203	186.44362770972901	0.0499819215260686	198286
198.386	50	416	0	0	blowtorch	148	107	1	stimuli\blowtorch\blowtorch_05s.jpg	4	-1	1	0	blowtorch_05s.jpg	0	0.0	0	186.49363523125197	186.54362934325297	0.0499941120006042	198386
198.486	50	417	0	0	teapot	1634	108	1	stimuli\teapot\teapot_11s.jpg	10	-1	1	0	teapot_11s.jpg	0	0.0	0	186.59365003048902	186.643631220586	0.0499811900974692	198486
198.586	50	418	0	0	orchid	1081	109	1	stimuli\orchid\orchid_03s.jpg	2	-1	1	0	orchid_03s.jpg	0	0.0	0	186.693650688774	186.74361822554002	0.0499675367657346	198586
198.686	50	419	0	0	origami	1083	110	1	stimuli\origami\origami_02s.jpg	1	-1	1	0	origami_02s.jpg	0	0.0	0	186.793638912776	186.843648140965	0.0500092281893103	198686
198.786	50	420	0	0	quilt	1264	111	1	stimuli\quilt\quilt_02s.jpg	1	-1	1	0	quilt_02s.jpg	0	0.0	0	186.893658100583	186.94363929068	0.0499811900974692	198786
198.886	50	421	0	0	dollhouse	500	112	1	stimuli\dollhouse\dollhouse_12s.jpg	11	-1	1	0	dollhouse_12s.jpg	0	0.0	0	186.99364729982202	187.04364287468002	0.0499955748575758	198886
198.986	50	422	0	0	life_jacket	924	113	1	stimuli\life_jacket\life_jacket_07s.jpg	6	-1	1	0	life_jacket_07s.jpg	0	0.0	0	187.093644544775	187.143617445349	0.0499729005746303	198986
199.086	50	423	0	0	slot_machine	1470	114	1	stimuli\slot_machine\slot_machine_06s.jpg	5	-1	1	0	slot_machine_06s.jpg	0	0.0	0	187.193675191628	187.243648336012	0.0499731443842393	199086
199.186	50	424	0	0	frog	644	115	1	stimuli\frog\frog_01b.jpg	0	-1	1	0	frog_01b.jpg	0	0.0	0	187.29366780420102	187.343639485728	0.0499716815272677	199186
199.286	50	425	0	0	pinball	1178	116	1	stimuli\pinball\pinball_10s.jpg	9	-1	1	0	pinball_10s.jpg	0	0.0	0	187.39368260343701	187.443654528774	0.0499719253366493	199286
199.386	50	426	0	0	compass	392	117	1	stimuli\compass\compass_04s.jpg	3	-1	1	0	compass_04s.jpg	0	0.0	0	187.49366229410597	187.54366713372502	0.0500048396183956	199386
199.486	50	427	0	0	clasp	351	118	1	stimuli\clasp\clasp_06s.jpg	5	-1	1	0	clasp_06s.jpg	0	0.0	0	187.593679775247	187.643661696773	0.0499819215260686	199486
199.586	50	428	0	0	aardvark	0	119	1	stimuli\aardvark\aardvark_09s.jpg	8	-1	1	0	aardvark_09s.jpg	0	0.0	0	187.69368921067402	187.7436762522	0.0499870415253554	199586
199.686	50	429	0	0	hash	756	120	1	stimuli\hash\hash_04s.jpg	3	-1	1	0	hash_04s.jpg	0	0.0	0	187.793681823247	187.843645215251	0.0499633920044289	199686
199.786	50	430	0	0	potpie	1234	121	1	stimuli\potpie\potpie_06s.jpg	5	-1	1	0	potpie_06s.jpg	0	0.0	0	187.893675654866	187.943661233535	0.0499855786683838	199786
199.886	50	431	0	0	trigger	1713	122	1	stimuli\trigger\trigger_09s.jpg	8	-1	1	0	trigger_09s.jpg	0	0.0	0	187.993672899819	188.043646044203	0.0499731443842393	199886
199.986	50	432	0	0	sword	1602	123	1	stimuli\sword\sword_11s.jpg	10	-1	1	0	sword_11s.jpg	0	0.0	0	188.093677702866	188.143674009152	0.0499963062861752	199986
200.086	50	433	0	0	bathmat	89	124	1	stimuli\bathmat\bathmat_05s.jpg	4	-1	1	0	bathmat_05s.jpg	0	0.0	0	188.19369372115003	188.243676130295	0.0499824091448318	200086
200.186	50	434	0	0	cannonball	261	125	1	stimuli\cannonball\cannonball_06s.jpg	5	-1	1	0	cannonball_06s.jpg	0	0.0	0	188.293678288009	188.343685565722	0.0500072777133482	200186
200.286	50	435	0	0	watering_can	1792	126	1	stimuli\watering_can\watering_can_01b.jpg	0	-1	1	0	watering_can_01b.jpg	0	0.0	0	188.393705765339	188.443660624011	0.0499548586722085	200286
200.386	50	436	0	0	chime	328	127	1	stimuli\chime\chime_04s.jpg	3	-1	1	0	chime_04s.jpg	0	0.0	0	188.49369984076802	188.54368932038798	0.049989479620308	200386
200.486	50	437	0	0	slicer	1463	128	1	stimuli\slicer\slicer_01b.jpg	0	-1	1	0	slicer_01b.jpg	0	0.0	0	188.593700011435	188.64366657296299	0.04996656152798099	200486
200.586	50	438	0	0	saddle	1343	129	1	stimuli\saddle\saddle_10s.jpg	9	-1	1	0	saddle_10s.jpg	0	0.0	0	188.693680921151	188.743657722678	0.0499768015267819	200586
200.686	50	439	0	0	face_mask	570	130	1	stimuli\face_mask\face_mask_12s.jpg	11	-1	1	0	face_mask_12s.jpg	0	0.0	0	188.79367767848498	188.843677885723	0.050000207237872	200686
200.786	50	440	0	0	kazoo	864	131	1	stimuli\kazoo\kazoo_02s.jpg	1	-1	1	0	kazoo_02s.jpg	0	0.0	0	188.893682969151	188.943676837342	0.0499938681912226	200786
200.886	50	441	0	0	suspenders	1589	132	1	stimuli\suspenders\suspenders_08s.jpg	7	-1	1	0	suspenders_08s.jpg	0	0.0	0	188.99369459886398	189.043672619438	0.0499780205739171	200886
200.986	50	442	0	0	rock	1319	133	1	stimuli\rock\rock_04s.jpg	3	-1	1	0	rock_04s.jpg	0	0.0	0	189.093699401911	189.143700584387	0.0500011824760804	200986
201.086	50	443	0	0	candy	255	134	1	stimuli\candy\candy_01b.jpg	0	-1	1	0	candy_01b.jpg	0	0.0	0	189.193717370671	189.24368320077	0.0499658300993815	201086
201.186	50	444	0	0	dart	473	135	1	stimuli\dart\dart_08s.jpg	7	-1	1	0	dart_08s.jpg	0	0.0	0	189.293726806098	189.34370897143398	0.0499821653354502	201186
201.286	50	445	0	0	lamb	889	136	1	stimuli\lamb\lamb_09s.jpg	8	-1	1	0	lamb_09s.jpg	0	0.0	0	189.39372478247898	189.443705241148	0.0499804586688697	201286
201.386	50	446	0	0	radiator	1272	137	1	stimuli\radiator\radiator_11s.jpg	10	-1	1	0	radiator_11s.jpg	0	0.0	0	189.49372519695498	189.543706874672	0.049981677716687004	201386
201.486	50	447	0	0	flamethrower	607	138	1	stimuli\flamethrower\flamethrower_06s.jpg	5	-1	1	0	flamethrower_06s.jpg	0	0.0	0	189.593710739053	189.643697049149	0.0499863100967559	201486
201.586	50	448	0	0	corkscrew	411	139	1	stimuli\corkscrew\corkscrew_07s.jpg	6	-1	1	0	corkscrew_07s.jpg	0	0.0	0	189.693732364955	189.74369551315	0.04996314819482	201586
201.686	50	449	0	0	marshmallow	977	140	1	stimuli\marshmallow\marshmallow_05s.jpg	4	-1	1	0	marshmallow_05s.jpg	0	0.0	0	189.793732779431	189.843696659054	0.0499638796234194	201686
201.786	50	450	0	0	cushion	466	141	1	stimuli\cushion\cushion_01b.jpg	0	-1	1	0	cushion_01b.jpg	0	0.0	0	189.893726123432	189.94369926781602	0.0499731443842393	201786
201.886	50	451	0	0	yogurt	1848	142	1	stimuli\yogurt\yogurt_08s.jpg	7	-1	1	0	yogurt_08s.jpg	0	0.0	0	189.99372361219397	190.043698950863	0.0499753386695829	201886
201.986	50	452	0	0	eggnog	549	143	1	stimuli\eggnog\eggnog_12s.jpg	11	-1	1	0	eggnog_12s.jpg	0	0.0	0	190.093717931433	190.143714725338	0.0499967939051658	201986
202.086	50	453	0	0	shaker	1408	144	1	stimuli\shaker\shaker_03s.jpg	2	-1	1	0	shaker_03s.jpg	0	0.0	0	190.19372712305	190.243705875053	0.0499787520027439	202086
202.186	50	454	0	0	checkbook	310	145	1	stimuli\checkbook\checkbook_11s.jpg	10	-1	1	0	checkbook_11s.jpg	0	0.0	0	190.293733632764	190.343738960001	0.0500053272373862	202186
202.286	50	455	0	0	mouth	1031	146	1	stimuli\mouth\mouth_02s.jpg	1	-1	1	0	mouth_02s.jpg	0	0.0	0	190.39372892724097	190.443705484958	0.0499765577171729	202286
202.386	50	456	0	0	stake	1533	147	1	stimuli\stake\stake_06s.jpg	5	-1	1	0	stake_06s.jpg	0	0.0	0	190.49373738743	190.543728329907	0.0499909424772795	202386
202.486	50	457	0	0	shoe	1423	148	1	stimuli\shoe\shoe_06s.jpg	5	-1	1	0	shoe_06s.jpg	0	0.0	0	190.593755599999	190.643734839621	0.0499792396215071	202486
202.586	50	458	0	0	visor	1766	149	1	stimuli\visor\visor_03s.jpg	2	-1	1	0	visor_03s.jpg	0	0.0	0	190.693756258285	190.743726476955	0.0499702186702962	202586
202.686	50	459	0	0	nutcracker	1067	150	1	stimuli\nutcracker\nutcracker_01b.jpg	0	-1	1	0	nutcracker_01b.jpg	0	0.0	0	190.79375886704702	190.843722502861	0.0499636358140378	202686
202.786	50	460	0	0	cake	237	151	1	stimuli\cake\cake_09s.jpg	8	-1	1	0	cake_09s.jpg	0	0.0	0	190.893733681526	190.943712433528	0.0499787520025166	202786
202.886	50	461	0	0	eye	564	152	1	stimuli\eye\eye_08s.jpg	7	-1	1	0	eye_08s.jpg	0	0.0	0	190.99374457981003	191.04372284419398	0.049978264383526	202886
202.986	50	462	0	0	butter	228	153	1	stimuli\butter\butter_02s.jpg	1	-1	1	0	butter_02s.jpg	0	0.0	0	191.093739386668	191.143737155811	0.0499977691431468	202986
203.086	50	463	0	0	anchor	21	154	1	stimuli\anchor\anchor_12s.jpg	11	-1	1	0	anchor_12s.jpg	0	0.0	0	191.193746384001	191.243739033144	0.0499926491436327	203086
203.186	50	464	0	0	tricycle	1711	155	1	stimuli\tricycle\tricycle_07s.jpg	6	-1	1	0	tricycle_07s.jpg	0	0.0	0	191.293742897525	191.34374676190498	0.050003864380642	203186
203.286	50	465	0	0	hairdryer	735	156	1	stimuli\hairdryer\hairdryer_05s.jpg	4	-1	1	0	hairdryer_05s.jpg	0	0.0	0	191.39376281676002	191.443743763048	0.0499809462878602	203286
203.386	50	466	0	0	piglet	1173	157	1	stimuli\piglet\piglet_02s.jpg	1	-1	1	0	piglet_02s.jpg	0	0.0	0	191.493760793142	191.54372808609799	0.049967292956353	203386
203.486	50	467	0	0	jelly_bean	844	158	1	stimuli\jelly_bean\jelly_bean_02s.jpg	1	-1	1	0	jelly_bean_02s.jpg	0	0.0	0	191.593762426665	191.643765071998	0.050002645333052	203486
203.586	50	468	0	0	cd_player	290	159	1	stimuli\cd_player\cd_player_03s.jpg	2	-1	1	0	cd_player_03s.jpg	0	0.0	0	191.693769423998	191.74374939504798	0.0499799710501065	203586
203.686	50	469	0	0	treadmill	1706	160	1	stimuli\treadmill\treadmill_04s.jpg	3	-1	1	0	treadmill_04s.jpg	0	0.0	0	191.793788611805	191.84375151619	0.0499629043854384	203686
203.786	50	470	0	0	air_conditioner	4	161	1	stimuli\air_conditioner\air_conditioner_05s.jpg	4	-1	1	0	air_conditioner_05s.jpg	0	0.0	0	191.893777079616	191.943755587809	0.049978508193135	203786
203.886	50	471	0	0	gyro	730	162	1	stimuli\gyro\gyro_06s.jpg	5	-1	1	0	gyro_06s.jpg	0	0.0	0	191.99379114742402	192.043771118474	0.0499799710498792	203886
203.986	50	472	0	0	ramp	1283	163	1	stimuli\ramp\ramp_12s.jpg	11	-1	1	0	ramp_12s.jpg	0	0.0	0	192.093769862855	192.14378543009101	0.0500155672361871	203986
204.086	50	473	0	0	coffee_table	381	164	1	stimuli\coffee_table\coffee_table_02s.jpg	1	-1	1	0	coffee_table_02s.jpg	0	0.0	0	192.19377954209202	192.24377950551997	0.0499999634284904	204086
204.186	50	474	0	0	tamale	1618	165	1	stimuli\tamale\tamale_07s.jpg	6	-1	1	0	tamale_07s.jpg	0	0.0	0	192.29380628799302	192.343785527615	0.0499792396215071	204186
204.286	50	475	0	0	owl	1091	166	1	stimuli\owl\owl_04s.jpg	3	-1	1	0	owl_04s.jpg	0	0.0	0	192.39380182628003	192.443782041139	0.0499802148594881	204286
204.386	50	476	0	0	fire_pit	593	167	1	stimuli\fire_pit\fire_pit_01b.jpg	0	-1	1	0	fire_pit_01b.jpg	0	0.0	0	192.493788831233	192.54378513752	0.0499963062861752	204386
204.486	50	477	0	0	cash_register	280	168	1	stimuli\cash_register\cash_register_08s.jpg	7	-1	1	0	cash_register_08s.jpg	0	0.0	0	192.593811919993	192.64379115961398	0.0499792396215071	204486
204.586	50	478	0	0	duct_tape	528	169	1	stimuli\duct_tape\duct_tape_06s.jpg	5	-1	1	0	duct_tape_06s.jpg	0	0.0	0	192.693809652564	192.743789867424	0.0499802148597155	204586
204.686	50	479	0	0	boa	150	170	1	stimuli\boa\boa_01s.jpg	0	-1	1	1	boa_01s.jpg	0	0.0	0	192.79381055465902	192.843771264759	0.0499607101000947	204686
204.786	50	480	0	0	counter	424	171	1	stimuli\counter\counter_05s.jpg	4	-1	1	0	counter_05s.jpg	0	0.0	0	192.89379926628	192.94376485257	0.0499655862899999	204786
204.886	50	481	0	0	swing_set	1599	172	1	stimuli\swing_set\swing_set_06s.jpg	5	-1	1	0	swing_set_06s.jpg	0	0.0	0	192.993799924565	193.04376672990298	0.0499668053375899	204886
204.986	50	482	0	0	lab_coat	885	173	1	stimuli\lab_coat\lab_coat_07s.jpg	6	-1	1	0	lab_coat_07s.jpg	0	0.0	0	193.09379546285197	193.143782016758	0.0499865539063649	204986
205.086	50	483	0	0	traffic_light	1696	174	1	stimuli\traffic_light\traffic_light_01b.jpg	0	-1	1	0	traffic_light_01b.jpg	0	0.0	0	193.19380562970798	193.243773897902	0.0499682681943341	205086
205.186	50	484	0	0	chair	300	175	1	stimuli\chair\chair_08s.jpg	7	-1	1	0	chair_08s.jpg	0	0.0	0	193.293810920374	193.34379747428002	0.0499865539065922	205186
205.286	50	485	0	0	sledgehammer	1461	176	1	stimuli\sledgehammer\sledgehammer_09s.jpg	8	-1	1	0	sledgehammer_09s.jpg	0	0.0	0	193.39381255389702	193.443794231614	0.0499816777164597	205286
205.386	50	486	0	0	gate	662	177	1	stimuli\gate\gate_09s.jpg	8	-1	1	0	gate_09s.jpg	1	0.692135168958885	1	193.493815162659	193.54379879085099	0.0499836281924217	205386
205.486	50	487	0	0	brick	199	178	1	stimuli\brick\brick_03s.jpg	2	-1	1	0	brick_03s.jpg	0	0.0	0	193.593816308563	193.64378506437697	0.0499687558133246	205486
205.586	50	488	0	0	denture	478	179	1	stimuli\denture\denture_08s.jpg	7	-1	1	0	denture_08s.jpg	0	0.0	0	193.693793804947	193.743803520755	0.0500097158083008	205586
205.686	50	489	0	0	inkwell	830	180	1	stimuli\inkwell\inkwell_07s.jpg	6	-1	1	0	inkwell_07s.jpg	0	0.0	0	193.79384029941798	193.84379515809	0.0499548586719811	205686
205.786	50	490	0	0	dish	489	181	1	stimuli\dish\dish_01b.jpg	0	-1	1	0	dish_01b.jpg	0	0.0	0	193.893830473895	193.943803618279	0.0499731443840119	205786
205.886	50	491	0	0	chimney	329	182	1	stimuli\chimney\chimney_01b.jpg	0	-1	1	0	chimney_01b.jpg	0	0.0	0	193.99382674361001	194.043791842281	0.049965098670782006	205886
205.986	50	492	0	0	punch2	1255	183	1	stimuli\punch2\punch2_03s.jpg	2	-1	1	0	punch2_03s.jpg	0	0.0	0	194.093835447609	194.143836873894	0.0500014262856894	205986
206.086	50	493	0	0	tree	1708	184	1	stimuli\tree\tree_11s.jpg	10	-1	1	0	tree_11s.jpg	0	0.0	0	194.19383269256198	194.24381241980203	0.0499797272404976	206086
206.186	50	494	0	0	cable	234	185	1	stimuli\cable\cable_06s.jpg	5	-1	1	0	cable_06s.jpg	0	0.0	0	194.29385114893998	194.343836971418	0.0499858224779928	206186
206.286	50	495	0	0	bandage	66	186	1	stimuli\bandage\bandage_03s.jpg	2	-1	1	0	bandage_03s.jpg	0	0.0	0	194.393839616751	194.443838117323	0.0499985005715189	206286
206.386	50	496	0	0	bread	194	187	1	stimuli\bread\bread_12s.jpg	11	-1	1	0	bread_12s.jpg	0	0.0	0	194.493843200751	194.543801228946	0.0499580281955332	206386
206.486	50	497	0	0	racehorse	1267	188	1	stimuli\racehorse\racehorse_03s.jpg	2	-1	1	0	racehorse_03s.jpg	0	0.0	0	194.59384044570302	194.64385040532102	0.0500099596179098	206486
206.586	50	498	0	0	eyeliner	567	189	1	stimuli\eyeliner\eyeliner_12s.jpg	11	-1	1	0	eyeliner_12s.jpg	0	0.0	0	194.693863046843	194.743843261703	0.0499802148594881	206586
206.686	50	499	0	0	juice	854	190	1	stimuli\juice\juice_02s.jpg	1	-1	1	0	juice_02s.jpg	0	0.0	0	194.793862729891	194.84383709332297	0.0499743634318293	206686
206.786	50	500	0	0	ladybug	888	191	1	stimuli\ladybug\ladybug_09s.jpg	8	-1	1	0	ladybug_09s.jpg	0	0.0	0	194.89386704531898	194.943845797322	0.0499787520025166	206786
206.886	50	501	0	0	tarp	1628	192	1	stimuli\tarp\tarp_05s.jpg	4	-1	1	0	tarp_05s.jpg	0	0.0	0	194.993868922652	195.043849137512	0.0499802148597155	206886
206.986	50	502	0	0	man	963	193	1	stimuli\man\man_05s.jpg	4	-1	1	0	man_05s.jpg	0	0.0	0	195.09386592379502	195.143839799608	0.0499738758128387	206986
207.086	50	503	0	0	broom	203	194	1	stimuli\broom\broom_10s.jpg	9	-1	1	0	broom_10s.jpg	0	0.0	0	195.19385609827302	195.243825585515	0.0499694872419241	207086
207.186	50	504	0	0	ferris_wheel	579	195	1	stimuli\ferris_wheel\ferris_wheel_03s.jpg	2	-1	1	0	ferris_wheel_03s.jpg	0	0.0	0	195.29385797560602	195.34383258284697	0.0499746072412108	207186
207.286	50	505	0	0	hand	744	196	1	stimuli\hand\hand_01b.jpg	0	-1	1	0	hand_01b.jpg	0	0.0	0	195.393861803415	195.443842993513	0.0499811900974692	207286
207.386	50	506	0	0	possum	1228	197	1	stimuli\possum\possum_07s.jpg	6	-1	1	0	possum_07s.jpg	0	0.0	0	195.49386392455799	195.543847065131	0.0499831405734312	207386
207.486	50	507	0	0	sweeper	1594	198	1	stimuli\sweeper\sweeper_10s.jpg	9	-1	1	0	sweeper_10s.jpg	0	0.0	0	195.593870678081	195.64387771198398	0.0500070339039667	207486
207.586	50	508	0	0	weed	1802	199	1	stimuli\weed\weed_11s.jpg	10	-1	1	0	weed_11s.jpg	0	0.0	0	195.693888159221	195.74386886169998	0.0499807024784786	207586
207.686	50	509	0	0	hot-water_bottle	802	200	1	stimuli\hot-water_bottle\hot-water_bottle_04s.jpg	3	-1	1	0	hot-water_bottle_04s.jpg	0	0.0	0	195.79389003655498	195.843853428559	0.0499633920044289	207686
207.786	50	510	0	0	horn	797	201	1	stimuli\horn\horn_11s.jpg	10	-1	1	0	horn_11s.jpg	0	0.0	0	195.89387947960302	195.943860425891	0.0499809462880876	207786
207.886	50	511	0	0	chicken_wire	324	202	1	stimuli\chicken_wire\chicken_wire_12s.jpg	11	-1	1	0	chicken_wire_12s.jpg	0	0.0	0	195.99388403884103	196.043854013702	0.0499699748609146	207886
207.986	50	512	0	0	chainsaw	299	203	1	stimuli\chainsaw\chainsaw_05s.jpg	4	-1	1	0	chainsaw_05s.jpg	0	0.0	0	196.093887135221	196.14388246627	0.0499953310481942	207986
208.086	50	513	0	0	flamingo	608	204	1	stimuli\flamingo\flamingo_08s.jpg	7	-1	1	0	flamingo_08s.jpg	0	0.0	0	196.19388901255502	196.243871909319	0.0499828967640497	208086
208.186	50	514	0	0	sandwich	1357	205	1	stimuli\sandwich\sandwich_01b.jpg	0	-1	1	0	sandwich_01b.jpg	0	0.0	0	196.29388503846002	196.343874030461	0.0499889920013175	208186
208.286	50	515	0	0	spaghetti	1503	206	1	stimuli\spaghetti\spaghetti_02s.jpg	1	-1	1	0	spaghetti_02s.jpg	0	0.0	0	196.393893498649	196.44385567160597	0.0499621729570663	208286
208.386	50	516	0	0	toilet_paper	1671	207	1	stimuli\toilet_paper\toilet_paper_08s.jpg	7	-1	1	0	toilet_paper_08s.jpg	0	0.0	0	196.493892937887	196.543878760365	0.0499858224777654	208386
208.486	50	517	0	0	speedometer	1512	208	1	stimuli\speedometer\speedometer_01b.jpg	0	-1	1	0	speedometer_01b.jpg	0	0.0	0	196.593895302839	196.643868447224	0.0499731443842393	208486
208.586	50	518	0	0	soda	1490	209	1	stimuli\soda\soda_12s.jpg	11	-1	1	0	soda_12s.jpg	0	0.0	0	196.693899862077	196.743880808365	0.0499809462878602	208586
208.686	50	519	0	0	treasure	1707	210	1	stimuli\treasure\treasure_01b.jpg	0	-1	1	0	treasure_01b.jpg	0	0.0	0	196.79389076798302	196.84387707808	0.0499863100969833	208686
208.786	50	520	0	0	roller_coaster	1325	211	1	stimuli\roller_coaster\roller_coaster_04s.jpg	3	-1	1	0	roller_coaster_04s.jpg	0	0.0	0	196.89390678626702	196.94388383160302	0.0499770453361634	208786
208.886	50	521	0	0	leaf	906	212	1	stimuli\leaf\leaf_01b.jpg	0	-1	1	0	leaf_01b.jpg	0	0.0	0	196.993906469314	197.043890585126	0.0499841158114123	208886
208.986	50	522	0	0	rearview_mirror	1293	213	1	stimuli\rearview_mirror\rearview_mirror_05s.jpg	4	-1	1	0	rearview_mirror_05s.jpg	0	0.0	0	197.09390907807597	197.143877833889	0.0499687558133246	208986
209.086	50	523	0	0	banana_peel	64	214	1	stimuli\banana_peel\banana_peel_10s.jpg	9	-1	1	0	banana_peel_10s.jpg	0	0.0	0	197.193899008744	197.243906530267	0.0500075215229572	209086
209.186	50	524	0	0	whiteboard	1813	215	1	stimuli\whiteboard\whiteboard_06s.jpg	5	-1	1	0	whiteboard_06s.jpg	0	0.0	0	197.29393014321602	197.343894754268	0.0499646110520189	209186
209.286	50	525	0	0	blowgun	147	216	1	stimuli\blowgun\blowgun_02s.jpg	1	-1	1	0	blowgun_02s.jpg	0	0.0	0	197.393942016738	197.44391345445598	0.0499714377178861	209286
209.386	50	526	0	0	tablecloth	1609	217	1	stimuli\tablecloth\tablecloth_09s.jpg	8	-1	1	0	tablecloth_09s.jpg	0	0.0	0	197.49393487312	197.54392508416902	0.0499902110486801	209386
209.486	50	527	0	0	pony	1220	218	1	stimuli\pony\pony_12s.jpg	11	-1	1	0	pony_12s.jpg	0	0.0	0	197.593918708551	197.643930862454	0.0500121539032534	209486
209.586	50	528	0	0	filter	587	219	1	stimuli\filter\filter_11s.jpg	10	-1	1	0	filter_11s.jpg	0	0.0	0	197.693940090644	197.74392201217	0.0499819215260686	209586
209.686	50	529	0	0	ice-cream_cone	817	220	1	stimuli\ice-cream_cone\ice-cream_cone_09s.jpg	8	-1	1	0	ice-cream_cone_09s.jpg	0	0.0	0	197.793915148932	197.84390170283902	0.0499865539065922	209686
209.786	50	530	0	0	clam	349	221	1	stimuli\clam\clam_09s.jpg	8	-1	1	0	clam_09s.jpg	0	0.0	0	197.893927997693	197.94391089445702	0.0499828967640497	209786
209.886	50	531	0	0	headlamp	764	222	1	stimuli\headlamp\headlamp_10s.jpg	9	-1	1	0	headlamp_10s.jpg	0	0.0	0	197.99393182550202	198.043897411792	0.0499655862899999	209886
209.986	50	532	0	0	camper	249	223	1	stimuli\camper\camper_04s.jpg	3	-1	1	0	camper_04s.jpg	0	0.0	0	198.093924681884	198.14390635959998	0.0499816777164597	209986
210.086	50	533	0	0	pinecone	1183	224	1	stimuli\pinecone\pinecone_06s.jpg	5	-1	1	0	pinecone_06s.jpg	0	0.0	0	198.19392704683602	198.243919695979	0.04999264914386001	210086
210.186	50	534	0	0	police_car	1214	225	1	stimuli\police_car\police_car_09s.jpg	8	-1	1	0	police_car_09s.jpg	0	0.0	0	198.293954036547	198.343942784739	0.0499887481919359	210186
210.286	50	535	0	0	drain	515	226	1	stimuli\drain\drain_07s.jpg	6	-1	1	0	drain_07s.jpg	0	0.0	0	198.39396005864103	198.443939054453	0.0499789958121255	210286
210.386	50	536	0	0	camera2	247	227	1	stimuli\camera2\camera2_11s.jpg	10	-1	1	0	camera2_11s.jpg	0	0.0	0	198.493959741689	198.543907042267	0.0499473005779691	210386
210.486	50	537	0	0	gurney	728	228	1	stimuli\gurney\gurney_07s.jpg	6	-1	1	0	gurney_07s.jpg	0	0.0	0	198.593950159976	198.643927692931	0.0499775329551539	210486
210.586	50	538	0	0	neck	1053	229	1	stimuli\neck\neck_10s.jpg	9	-1	1	0	neck_10s.jpg	0	0.0	0	198.69394764873797	198.743928838835	0.0499811900974692	210586
210.686	50	539	0	0	tripod	1714	230	1	stimuli\tripod\tripod_04s.jpg	3	-1	1	0	tripod_04s.jpg	0	0.0	0	198.793956596546	198.843922914265	0.049966317718372	210686
210.786	50	540	0	0	dresser	519	231	1	stimuli\dresser\dresser_06n.jpg	5	-1	1	0	dresser_06n.jpg	0	0.0	0	198.893958961498	198.943937469691	0.049978508193135	210786
210.886	50	541	0	0	pheasant	1160	232	1	stimuli\pheasant\pheasant_08s.jpg	7	-1	1	0	pheasant_08s.jpg	0	0.0	0	198.99395718168898	199.043941297501	0.0499841158114123	210886
210.986	50	542	0	0	outlet	1088	233	1	stimuli\outlet\outlet_01b.jpg	0	-1	1	0	outlet_01b.jpg	0	0.0	0	199.093951988547	199.14394122435797	0.0499892358109264	210986
211.086	50	543	0	0	guinea_pig	722	234	1	stimuli\guinea_pig\guinea_pig_03s.jpg	2	-1	1	0	guinea_pig_03s.jpg	0	0.0	0	199.19396191159302	199.243940907405	0.0499789958121255	211086
211.186	50	544	0	0	goggles	686	235	1	stimuli\goggles\goggles_06s.jpg	5	-1	1	0	goggles_06s.jpg	0	0.0	0	199.293965251783	199.34393595807302	0.0499707062892867	211186
211.286	50	545	0	0	cereal	297	236	1	stimuli\cereal\cereal_09s.jpg	8	-1	1	0	cereal_09s.jpg	0	0.0	0	199.393995654827	199.443947343976	0.0499516891488838	211286
211.386	50	546	0	0	penholder	1146	237	1	stimuli\penholder\penholder_02s.jpg	1	-1	1	0	penholder_02s.jpg	0	0.0	0	199.493987048352	199.54396823845002	0.0499811900974692	211386
211.486	50	547	0	0	stockings	1559	238	1	stimuli\stockings\stockings_05s.jpg	4	-1	1	0	stockings_05s.jpg	0	0.0	0	199.593993070447	199.64394866054698	0.0499555901005806	211486
211.586	50	548	0	0	table	1608	239	1	stimuli\table\table_03s.jpg	2	-1	1	0	table_03s.jpg	0	0.0	0	199.693978856353	199.743958095975	0.0499792396215071	211586
211.686	50	549	0	0	centerpiece	295	240	1	stimuli\centerpiece\centerpiece_12s.jpg	11	-1	1	0	centerpiece_12s.jpg	0	0.0	0	199.79397829559102	199.843959973308	0.0499816777164597	211686
211.786	50	550	0	0	daisy	470	241	1	stimuli\daisy\daisy_09s.jpg	8	-1	1	0	daisy_09s.jpg	0	0.0	0	199.89398553673303	199.943966726831	0.0499811900976965	211786
211.886	50	551	0	0	kaleidoscope	861	242	1	stimuli\kaleidoscope\kaleidoscope_11s.jpg	10	-1	1	0	kaleidoscope_11s.jpg	0	0.0	0	199.993984732162	200.04396738511699	0.0499826529544407	211886
211.986	50	552	0	0	holster	786	243	1	stimuli\holster\holster_06s.jpg	5	-1	1	0	holster_06s.jpg	0	0.0	0	200.09397734473401	200.143968043402	0.049990698667897994	211986
212.086	50	553	0	0	jack	835	244	1	stimuli\jack\jack_04s.jpg	3	-1	1	0	jack_04s.jpg	0	0.0	0	200.193965568736	200.24397284644903	0.0500072777135756	212086
212.186	50	554	0	0	pine_tree	1181	245	1	stimuli\pine_tree\pine_tree_08s.jpg	7	-1	1	0	pine_tree_08s.jpg	0	0.0	0	200.29398304987598	200.344004468541	0.0500214186640733	212186
212.286	50	555	0	0	bulldozer	215	246	1	stimuli\bulldozer\bulldozer_11s.jpg	10	-1	1	0	bulldozer_11s.jpg	0	0.0	0	200.394011746254	200.44397513825803	0.0499633920044289	212286
212.386	50	556	0	0	kilt	872	247	1	stimuli\kilt\kilt_01b.jpg	0	-1	1	0	kilt_01b.jpg	0	0.0	0	200.494016061682	200.543975552735	0.0499594910525047	212386
212.486	50	557	0	0	duckling	526	248	1	stimuli\duckling\duckling_01b.jpg	0	-1	1	0	duckling_01b.jpg	0	0.0	0	200.594025984728	200.644003273874	0.049977289145545	212486
212.586	50	558	0	0	iceskate	823	249	1	stimuli\iceskate\iceskate_09s.jpg	8	-1	1	0	iceskate_09s.jpg	0	0.0	0	200.69400226206403	200.74398223311502	0.0499799710501065	212586
212.686	50	559	0	0	bead	100	250	1	stimuli\bead\bead_01b.jpg	0	-1	1	0	bead_01b.jpg	0	0.0	0	200.79402266891898	200.843978990448	0.0499563215291801	212686
212.786	50	560	0	0	wooden_leg	1834	251	1	stimuli\wooden_leg\wooden_leg_09s.jpg	8	-1	1	0	wooden_leg_09s.jpg	0	0.0	0	200.89400455387403	200.943974284925	0.0499697310513056	212786
212.886	50	561	0	0	hyena	815	252	1	stimuli\hyena\hyena_06s.jpg	5	-1	1	0	hyena_06s.jpg	0	0.0	0	200.994010819778	201.043981526067	0.0499707062892867	212886
212.986	50	562	0	0	cotton_candy	421	253	1	stimuli\cotton_candy\cotton_candy_02s.jpg	1	-1	1	0	cotton_candy_02s.jpg	0	0.0	0	201.09401318473	201.14400095768397	0.0499877729539548	212986
213.086	50	563	0	0	hedge	773	254	1	stimuli\hedge\hedge_01b.jpg	0	-1	1	0	hedge_01b.jpg	0	0.0	0	201.194015549682	201.24398869406602	0.0499731443842393	213086
213.186	50	564	0	0	calamari	239	255	1	stimuli\calamari\calamari_12s.jpg	11	-1	1	0	calamari_12s.jpg	0	0.0	0	201.294022059396	201.343991790447	0.0499697310513056	213186
213.286	50	565	0	0	straw2	1569	256	1	stimuli\straw2\straw2_04s.jpg	3	-1	1	0	straw2_04s.jpg	0	0.0	0	201.394020279586	201.44400220111197	0.0499819215260686	213286
213.386	50	566	0	0	car	267	257	1	stimuli\car\car_01b.jpg	0	-1	1	0	car_01b.jpg	0	0.0	0	201.49404093025	201.54399700797	0.0499560777195711	213386
213.486	50	567	0	0	combination_lock	390	258	1	stimuli\combination_lock\combination_lock_10s.jpg	9	-1	1	0	combination_lock_10s.jpg	0	0.0	0	201.594023546633	201.644004492921	0.0499809462878602	213486
213.586	50	568	0	0	swan	1591	259	1	stimuli\swan\swan_12s.jpg	11	-1	1	0	swan_12s.jpg	0	0.0	0	201.694030543966	201.744011734063	0.0499811900974692	213586
213.686	50	569	0	0	gavel	665	260	1	stimuli\gavel\gavel_08s.jpg	7	-1	1	0	gavel_08s.jpg	0	0.0	0	201.794032908918	201.844028971395	0.0499960624765663	213686
213.786	50	570	0	0	space_shuttle	1501	261	1	stimuli\space_shuttle\space_shuttle_04s.jpg	3	-1	1	0	space_shuttle_04s.jpg	0	0.0	0	201.894044538631	201.94402841063302	0.0499838720020307	213786
213.886	50	571	0	0	pet_food	1157	262	1	stimuli\pet_food\pet_food_06s.jpg	5	-1	1	0	pet_food_06s.jpg	0	0.0	0	201.99404958548698	202.044044185107	0.0499945996198221	213886
213.986	50	572	0	0	badger	53	263	1	stimuli\badger\badger_05s.jpg	4	-1	1	0	badger_05s.jpg	0	0.0	0	202.09405658281997	202.14403704148899	0.0499804586690971	213986
214.086	50	573	0	0	seesaw	1402	264	1	stimuli\seesaw\seesaw_11s.jpg	10	-1	1	0	seesaw_11s.jpg	0	0.0	0	202.194059435391	202.24403233596598	0.0499729005746303	214086
214.186	50	574	0	0	shoelace	1426	265	1	stimuli\shoelace\shoelace_05s.jpg	4	-1	1	0	shoelace_05s.jpg	0	0.0	0	202.29405911843898	202.344016171396	0.0499570529575522	214186
214.286	50	575	0	0	plum	1203	266	1	stimuli\plum\plum_04s.jpg	3	-1	1	0	plum_04s.jpg	0	0.0	0	202.394044660536	202.444026338252	0.0499816777164597	214286
214.386	50	576	0	0	funnel	649	267	1	stimuli\funnel\funnel_07s.jpg	6	-1	1	0	funnel_07s.jpg	0	0.0	0	202.49404800072602	202.544022607967	0.0499746072412108	214386
214.486	50	577	0	0	bottle_opener	171	268	1	stimuli\bottle_opener\bottle_opener_03s.jpg	2	-1	1	0	bottle_opener_03s.jpg	0	0.0	0	202.594045489488	202.644020828158	0.0499753386698103	214486
214.586	50	578	0	0	cigarette	344	269	1	stimuli\cigarette\cigarette_11s.jpg	10	-1	1	0	cigarette_11s.jpg	0	0.0	0	202.69405590015302	202.744038309298	0.0499824091450591	214586
214.686	50	579	0	0	waterwheel	1794	270	1	stimuli\waterwheel\waterwheel_02s.jpg	1	-1	1	0	waterwheel_02s.jpg	0	0.0	0	202.794083865102	202.844058716153	0.0499748510505924	214686
214.786	50	580	0	0	thermos	1647	271	1	stimuli\thermos\thermos_09s.jpg	8	-1	1	0	thermos_09s.jpg	0	0.0	0	202.894081841484	202.944059862058	0.0499780205741445	214786
214.886	50	581	0	0	patch	1125	272	1	stimuli\patch\patch_07s.jpg	6	-1	1	0	patch_07s.jpg	1	0.0	0	202.994064457866	203.044041747012	0.0499772891457724	214886
214.986	50	582	0	0	plunger	1204	273	1	stimuli\plunger\plunger_03s.jpg	2	-1	1	0	plunger_03s.jpg	0	0.0	0	203.094069017104	203.144034847204	0.0499658300996089	214986
215.086	50	583	0	0	skunk	1459	274	1	stimuli\skunk\skunk_09s.jpg	8	-1	1	0	skunk_09s.jpg	0	0.0	0	203.19408869253002	203.24406500643798	0.0499763139077913	215086
215.186	50	584	0	0	seismograph	1403	275	1	stimuli\seismograph\seismograph_07s.jpg	6	-1	1	0	seismograph_07s.jpg	0	0.0	0	203.294067407961	203.34405103615399	0.0499836281924217	215186
215.286	50	585	0	0	cookie_sheet	402	276	1	stimuli\cookie_sheet\cookie_sheet_03s.jpg	2	-1	1	0	cookie_sheet_03s.jpg	0	0.0	0	203.39407074815202	203.444054620153	0.0499838720018033	215286
215.386	50	586	0	0	guacamole	719	277	1	stimuli\guacamole\guacamole_03s.jpg	2	-1	1	0	guacamole_03s.jpg	0	0.0	0	203.49407530738898	203.54405625367698	0.0499809462880876	215386
215.486	50	587	0	0	napkin	1050	278	1	stimuli\napkin\napkin_12s.jpg	11	-1	1	0	napkin_12s.jpg	0	0.0	0	203.59408279233998	203.644057887201	0.0499750948602014	215486
215.586	50	588	0	0	piano	1165	279	1	stimuli\piano\piano_07n.jpg	6	-1	1	0	piano_07n.jpg	0	0.0	0	203.69409710395803	203.744077806436	0.0499807024784786	215586
215.686	50	589	0	0	tiramisu	1663	280	1	stimuli\tiramisu\tiramisu_05s.jpg	4	-1	1	0	tiramisu_05s.jpg	0	0.0	0	203.79407338129397	203.844066274247	0.0499928929532416	215686
215.786	50	590	0	0	doghouse	497	281	1	stimuli\doghouse\doghouse_02s.jpg	1	-1	1	0	doghouse_02s.jpg	0	0.0	0	203.894084523388	203.944065225866	0.0499807024784786	215786
215.886	50	591	0	0	lavender	904	282	1	stimuli\lavender\lavender_09s.jpg	8	-1	1	0	lavender_09s.jpg	0	0.0	0	203.994084937864	204.04407344224603	0.0499885043823269	215886
215.986	50	592	0	0	dishwashing_liquid	492	283	1	stimuli\dishwashing_liquid\dishwashing_liquid_02s.jpg	1	-1	1	0	dishwashing_liquid_02s.jpg	0	0.0	0	204.09411534090802	204.14407531958	0.0499599786714953	215986
216.086	50	593	0	0	meatball	989	284	1	stimuli\meatball\meatball_05s.jpg	4	-1	1	0	meatball_05s.jpg	0	0.0	0	204.194109903956	204.24409182548197	0.0499819215260686	216086
216.186	50	594	0	0	step_stool	1548	285	1	stimuli\step_stool\step_stool_03s.jpg	2	-1	1	1	step_stool_03s.jpg	0	0.0	0	204.29409178891103	204.344104430433	0.0500126415222439	216186
216.286	50	595	0	0	turkey	1733	286	1	stimuli\turkey\turkey_10s.jpg	9	-1	1	0	turkey_10s.jpg	0	0.0	0	204.394101468148	204.44408119538798	0.0499797272404976	216286
216.386	50	596	0	0	cornmeal	415	287	1	stimuli\cornmeal\cornmeal_05s.jpg	4	-1	1	0	cornmeal_05s.jpg	0	0.0	0	204.49410188262402	204.544105259385	0.0500033767614241	216386
216.486	50	597	0	0	vent	1758	288	1	stimuli\vent\vent_03s.jpg	2	-1	1	0	vent_03s.jpg	1	0.34193355069760395	1	204.594124239954	204.64408738814998	0.0499631481950473	216486
216.586	50	598	0	0	ukulele	1742	289	1	stimuli\ukulele\ukulele_03s.jpg	2	-1	1	0	ukulele_03s.jpg	0	0.0	0	204.694121484907	204.744092191196	0.0499707062892867	216586
216.686	50	599	0	0	abacus	1	290	1	stimuli\abacus\abacus_04s.jpg	3	-1	1	0	abacus_04s.jpg	0	0.0	0	204.794127263192	204.8441035771	0.049976313907564004	216686
216.786	50	600	0	0	beaver	107	291	1	stimuli\beaver\beaver_01b.jpg	0	-1	1	0	beaver_01b.jpg	0	0.0	0	204.89412670243	204.944110818242	0.0499841158114123	216786
216.886	50	601	0	0	waffle_iron	1771	292	1	stimuli\waffle_iron\waffle_iron_09s.jpg	8	-1	1	0	waffle_iron_09s.jpg	0	0.0	0	204.994134675001	205.044115621289	0.0499809462880876	216886
216.986	50	602	0	0	cashew	281	293	1	stimuli\cashew\cashew_03s.jpg	2	-1	1	0	cashew_03s.jpg	0	0.0	0	205.09413777138099	205.14411384148	0.0499760700981824	216986
217.086	50	603	0	0	shell3	1419	294	1	stimuli\shell3\shell3_12s.jpg	11	-1	1	0	shell3_12s.jpg	0	0.0	0	205.194119168717	205.244117913098	0.0499987443811278	217086
217.186	50	604	0	0	coleslaw	386	295	1	stimuli\coleslaw\coleslaw_06s.jpg	5	-1	1	0	coleslaw_06s.jpg	0	0.0	0	205.294117876527	205.344107599956	0.0499897234299169	217186
217.286	50	605	0	0	torch	1683	296	1	stimuli\torch\torch_07s.jpg	6	-1	1	0	torch_07s.jpg	0	0.0	0	205.394125605288	205.444103382052	0.0499777767645355	217286
217.386	50	606	0	0	silicone	1444	297	1	stimuli\silicone\silicone_02s.jpg	1	-1	1	0	silicone_02s.jpg	0	0.0	0	205.49411602357497	205.544106234623	0.0499902110486801	217386
