onset	duration	eventnumber	blocksequencenumber	isteststim	object	objectnumber	presentationnumber	sequencenumber	stim	stimnumber	teststimnumber	withinsequencenumber	istarget	stimname	response	rt	correct	time_stimon	time_stimoff	stimdur	sample
13.471	50	0	0	0	baseball	78	0	0	stimuli\baseball\baseball_05s.jpg	4	-1	0	0	baseball_05s.jpg	1	0.0	0	166.93574912753002	166.985730317887	0.0499811903573573	13471
13.571	50	1	0	0	filing_cabinet	585	1	0	stimuli\filing_cabinet\filing_cabinet_04s.jpg	3	-1	0	0	filing_cabinet_04s.jpg	0	0.0	0	167.03575222380502	167.085734389257	0.0499821654520929	13571
13.671	50	2	0	0	shoehorn	1425	2	0	stimuli\shoehorn\shoehorn_05s.jpg	4	-1	0	0	shoehorn_05s.jpg	0	0.0	0	167.135754101444	167.18573553534202	0.0499814338982105	13671
13.771	50	3	0	0	stool	1561	3	0	stimuli\stool\stool_01b.jpg	0	-1	0	0	stool_01b.jpg	0	0.0	0	167.235763780773	167.285741557367	0.049977776594460004	13771
13.871	50	4	0	0	cement_mixer	294	4	0	stimuli\cement_mixer\cement_mixer_11s.jpg	10	-1	0	0	cement_mixer_11s.jpg	0	0.0	0	167.335761269089	167.385737583041	0.0499763139523566	13871
13.971	50	5	0	0	loveseat	947	5	0	stimuli\loveseat\loveseat_11s.jpg	10	-1	0	0	loveseat_11s.jpg	0	0.0	0	167.435765340924	167.48639335762698	0.0506280167028308	13971
14.071	50	6	0	0	hat	757	6	0	stimuli\hat\hat_03s.jpg	2	-1	0	0	hat_03s.jpg	0	0.0	0	167.535764292348	167.58574353205	0.0499792397022247	14071
14.171	50	7	0	0	scanner	1375	7	0	stimuli\scanner\scanner_10s.jpg	9	-1	0	0	scanner_10s.jpg	0	0.0	0	167.635766657535	167.685748578981	0.0499819214455783	14171
14.271	50	8	0	0	shorts	1430	8	0	stimuli\shorts\shorts_02s.jpg	1	-1	0	0	shorts_02s.jpg	0	0.0	0	167.735767315608	167.785752894357	0.0499855787493289	14271
14.371	50	9	0	0	tape_measure	1623	9	0	stimuli\tape_measure\tape_measure_07s.jpg	6	-1	0	0	tape_measure_07s.jpg	0	0.0	0	167.835776019841	167.88575208978702	0.049976069945842	14371
14.471	50	10	0	0	breakfast	197	10	0	stimuli\breakfast\breakfast_11s.jpg	10	-1	0	0	breakfast_11s.jpg	0	0.0	0	167.935777409468	167.98575713671698	0.0499797272495925	14471
14.571	50	11	0	0	lighter	928	11	0	stimuli\lighter\lighter_03s.jpg	2	-1	0	0	lighter_03s.jpg	0	0.0	0	168.035776848905	168.085756576154	0.0499797272495925	14571
14.671	50	12	0	0	porcupine	1226	12	0	stimuli\porcupine\porcupine_12s.jpg	11	-1	0	0	porcupine_12s.jpg	0	0.0	0	168.135779701173	168.185761379078	0.0499816779047251	14671
14.771	50	13	0	0	mosquito	1020	13	0	stimuli\mosquito\mosquito_06s.jpg	5	-1	0	0	mosquito_06s.jpg	0	0.0	0	168.235783041455	168.285763012711	0.0499799712561071	14771
14.871	50	14	0	0	puddle	1247	14	0	stimuli\puddle\puddle_03s.jpg	2	-1	0	0	puddle_03s.jpg	0	0.0	0	168.33578394353398	168.385771228932	0.0499872853979468	14871
14.971	50	15	0	0	artichoke	39	15	0	stimuli\artichoke\artichoke_01b.jpg	0	-1	0	0	artichoke_01b.jpg	0	0.0	0	168.435786064714	168.48577091191	0.0499848471954465	14971
15.071	50	16	0	0	navel	1052	16	0	stimuli\navel\navel_08s.jpg	7	-1	0	0	navel_08s.jpg	0	0.0	0	168.535817199387	168.585772057995	0.0499548586085439	15071
15.171	50	17	0	0	lab_coat	885	17	0	stimuli\lab_coat\lab_coat_07s.jpg	6	-1	0	0	lab_coat_07s.jpg	0	0.0	0	168.635792745277	168.685774422716	0.0499816774390638	15171
15.271	50	18	0	0	pine_needle	1180	18	0	stimuli\pine_needle\pine_needle_01b.jpg	0	-1	0	0	pine_needle_01b.jpg	0	0.0	0	168.735796085093	168.78577727545098	0.0499811903573573	15271
15.371	50	19	0	0	headband	762	19	0	stimuli\headband\headband_09s.jpg	8	-1	0	0	headband_09s.jpg	0	0.0	0	168.835799425375	168.885782322381	0.0499828970059752	15371
15.471	50	20	0	0	rain_gauge	1278	20	0	stimuli\rain_gauge\rain_gauge_10s.jpg	9	-1	0	0	rain_gauge_10s.jpg	0	0.0	0	168.935804472305	168.985782005358	0.0499775330536067	15471
15.571	50	21	0	0	underwear	1745	21	0	stimuli\underwear\underwear_04s.jpg	3	-1	0	0	underwear_04s.jpg	0	0.0	0	169.035802936181	169.08578339498501	0.0499804588034749	15571
15.671	50	22	0	0	parking_meter	1120	22	0	stimuli\parking_meter\parking_meter_07s.jpg	6	-1	0	0	parking_meter_07s.jpg	0	0.0	0	169.135805544909	169.185787710361	0.0499821654520929	15671
15.771	50	23	0	0	wick	1815	23	0	stimuli\wick\wick_01b.jpg	0	-1	0	0	wick_01b.jpg	0	0.0	0	169.235808154102	169.285789831541	0.0499816774390638	15771
15.871	50	24	0	0	steering_wheel	1546	24	0	stimuli\steering_wheel\steering_wheel_12s.jpg	11	-1	0	1	steering_wheel_12s.jpg	0	0.0	0	169.335813444573	169.385795366019	0.0499819214455783	15871
15.971	50	25	0	0	ladybug	888	25	0	stimuli\ladybug\ladybug_03s.jpg	2	-1	0	0	ladybug_03s.jpg	0	0.0	0	169.435817272402	169.485796024557	0.0499787521548569	15971
16.071	50	26	0	0	hotplate	806	26	0	stimuli\hotplate\hotplate_09s.jpg	8	-1	0	0	hotplate_09s.jpg	1	0.24190290365368103	1	169.535816223826	169.58580277767	0.0499865538440645	16071
16.171	50	27	0	0	closet	360	27	0	stimuli\closet\closet_12s.jpg	11	-1	0	0	closet_12s.jpg	0	0.0	0	169.63581907656	169.68580172956	0.0499826529994607	16171
16.271	50	28	0	0	belt	118	28	0	stimuli\belt\belt_03s.jpg	2	-1	0	0	belt_03s.jpg	0	0.0	0	169.73582217283501	169.785801900085	0.0499797272495925	16271
16.371	50	29	0	0	ukulele	1742	29	0	stimuli\ukulele\ukulele_09s.jpg	8	-1	0	0	ukulele_09s.jpg	0	0.0	0	169.835823562462	169.885806459468	0.0499828970059752	16371
16.471	50	30	0	0	bumper	219	30	0	stimuli\bumper\bumper_03s.jpg	2	-1	0	0	bumper_03s.jpg	0	0.0	0	169.935829096939	169.98581126239202	0.0499821654520929	16471
16.571	50	31	0	0	toothbrush	1679	31	0	stimuli\toothbrush\toothbrush_08s.jpg	7	-1	0	0	toothbrush_08s.jpg	0	0.0	0	170.035832681227	170.085818503518	0.0499858222901821	16571
16.671	50	32	0	0	candy	255	32	0	stimuli\candy\candy_11s.jpg	10	-1	0	0	candy_11s.jpg	0	0.0	0	170.135834558401	170.18581404211	0.0499794837087393	16671
16.771	50	33	0	0	headset	769	33	0	stimuli\headset\headset_04s.jpg	3	-1	0	0	headset_04s.jpg	1	0.907289733178914	1	170.235836192034	170.285817138385	0.0499809463508427	16771
16.871	50	34	0	0	cheesecake	314	34	0	stimuli\cheesecake\cheesecake_12s.jpg	11	-1	0	0	cheesecake_12s.jpg	0	0.0	0	170.33583855675502	170.385823647957	0.04998509120196099	16871
16.971	50	35	0	0	breadstick	196	35	0	stimuli\breadstick\breadstick_07s.jpg	6	-1	0	0	breadstick_07s.jpg	0	0.0	0	170.435840921942	170.485821868293	0.0499809463508427	16971
17.071	50	36	0	0	chime	328	36	0	stimuli\chime\chime_06s.jpg	5	-1	0	0	chime_06s.jpg	0	0.0	0	170.535848894622	170.585825208575	0.0499763139523566	17071
17.171	50	37	0	0	nail_polish	1049	37	0	stimuli\nail_polish\nail_polish_07s.jpg	6	-1	0	0	nail_polish_07s.jpg	0	0.0	0	170.63584955269502	170.685827817302	0.0499782646074891	17171
17.271	50	38	0	0	tree_trunk	1709	38	0	stimuli\tree_trunk\tree_trunk_05s.jpg	4	-1	0	0	tree_trunk_05s.jpg	0	0.0	0	170.73585557472	170.785829938482	0.0499743637628853	17271
17.371	50	39	0	0	money	1015	39	0	stimuli\money\money_10s.jpg	9	-1	0	0	money_10s.jpg	0	0.0	0	170.835852088407	170.885833522305	0.0499814338982105	17371
17.471	50	40	0	0	cantaloupe	263	40	0	stimuli\cantaloupe\cantaloupe_03s.jpg	2	-1	0	0	cantaloupe_03s.jpg	1	0.0	0	170.93585689133002	170.985835643485	0.0499787521548569	17471
17.571	50	41	0	0	suitcase	1581	41	0	stimuli\suitcase\suitcase_01b.jpg	0	-1	0	0	suitcase_01b.jpg	0	0.0	0	171.035859256517	171.08584361616502	0.0499843596480787	17571
17.671	50	42	0	0	hoodie	792	42	0	stimuli\hoodie\hoodie_09s.jpg	8	-1	0	0	hoodie_09s.jpg	0	0.0	0	171.135858451948	171.185840860941	0.0499824089929461	17671
17.771	50	43	0	0	popcorn	1223	43	0	stimuli\popcorn\popcorn_09s.jpg	8	-1	0	0	popcorn_09s.jpg	0	0.0	0	171.235864717513	171.28584176302	0.0499770455062389	17771
17.871	50	44	0	0	mulberry	1037	44	0	stimuli\mulberry\mulberry_06s.jpg	5	-1	0	0	mulberry_06s.jpg	0	0.0	0	171.33587000845	171.385847541504	0.0499775330536067	17871
17.971	50	45	0	0	enchilada	556	45	0	stimuli\enchilada\enchilada_12s.jpg	11	-1	0	0	enchilada_12s.jpg	0	0.0	0	171.435870178975	171.485850881319	0.0499807023443282	17971
18.071	50	46	0	0	pin	1177	46	0	stimuli\pin\pin_04s.jpg	3	-1	0	0	pin_04s.jpg	0	0.0	0	171.535872056149	171.585854465608	0.0499824094586074	18071
18.171	50	47	0	0	cockatoo	372	47	0	stimuli\cockatoo\cockatoo_01b.jpg	0	-1	0	0	cockatoo_01b.jpg	0	0.0	0	171.635877347086	171.685858780984	0.0499814338982105	18171
18.271	50	48	0	0	hearse	771	48	0	stimuli\hearse\hearse_03s.jpg	2	-1	0	0	hearse_03s.jpg	0	0.0	0	171.735876054969	171.785856025759	0.0499799707904458	18271
18.371	50	49	0	0	birdcage	130	49	0	stimuli\birdcage\birdcage_01b.jpg	0	-1	0	0	birdcage_01b.jpg	1	0.0	0	171.83587841968998	171.885859122034	0.0499807023443282	18371
18.471	50	50	0	0	bead	100	50	0	stimuli\bead\bead_06s.jpg	5	-1	0	0	bead_06s.jpg	0	0.0	0	171.935881272424	171.985861731227	0.0499804588034749	18471
18.571	50	51	0	0	pipe1	1186	51	0	stimuli\pipe1\pipe1_02s.jpg	1	-1	0	0	pipe1_02s.jpg	0	0.0	0	172.03586023161202	172.085869215894	0.0500089842826128	18571
18.671	50	52	0	0	bin	125	52	0	stimuli\bin\bin_08s.jpg	7	-1	0	0	bin_08s.jpg	0	0.0	0	172.13588965917	172.185867923778	0.0499782646074891	18671
18.771	50	53	0	0	coffeemaker	382	53	0	stimuli\coffeemaker\coffeemaker_12s.jpg	11	-1	0	0	coffeemaker_12s.jpg	0	0.0	0	172.23589104926202	172.28587199561298	0.0499809463508427	18771
18.871	50	54	0	0	wedge	1801	54	0	stimuli\wedge\wedge_10s.jpg	9	-1	0	0	wedge_10s.jpg	0	0.0	0	172.33589365799	172.385871434584	0.049977776594460004	18871
18.971	50	55	0	0	trough	1718	55	0	stimuli\trough\trough_04s.jpg	3	-1	0	0	trough_04s.jpg	0	0.0	0	172.435895291623	172.48587574996102	0.0499804583378136	18971
19.071	50	56	0	0	chopsticks	339	56	0	stimuli\chopsticks\chopsticks_03s.jpg	2	-1	0	0	chopsticks_03s.jpg	0	0.0	0	172.535896193702	172.58588128443802	0.0499850907362998	19071
19.171	50	57	0	0	flagpole	606	57	0	stimuli\flagpole\flagpole_09s.jpg	8	-1	0	0	flagpole_09s.jpg	0	0.0	0	172.635902459268	172.68588413717202	0.0499816779047251	19171
19.271	50	58	0	0	extinguisher	563	58	0	stimuli\extinguisher\extinguisher_05s.jpg	4	-1	0	0	extinguisher_05s.jpg	0	0.0	0	172.735903117806	172.785886014346	0.04998289654031401	19271
19.371	50	59	0	0	bolo_tie	157	59	0	stimuli\bolo_tie\bolo_tie_11s.jpg	10	-1	0	0	bolo_tie_11s.jpg	1	0.0	0	172.83590962737802	172.88588837953301	0.0499787521548569	19371
19.471	50	60	0	0	oatmeal	1069	60	0	stimuli\oatmeal\oatmeal_01s.jpg	0	-1	0	0	oatmeal_01s.jpg	0	0.0	0	172.93590979790298	172.985891231801	0.0499814338982105	19471
19.571	50	61	0	0	rag	1276	61	0	stimuli\rag\rag_05s.jpg	4	-1	0	0	rag_05s.jpg	0	0.0	0	173.035911919083	173.085893352982	0.0499814338982105	19571
19.671	50	62	0	0	buffet	211	62	0	stimuli\buffet\buffet_01b.jpg	0	-1	0	0	buffet_01b.jpg	0	0.0	0	173.135915746912	173.185899131466	0.0499833845533431	19671
19.771	50	63	0	0	van	1752	63	0	stimuli\van\van_07s.jpg	6	-1	0	0	van_07s.jpg	0	0.0	0	173.235920062289	173.285897839349	0.0499777770601213	19771
19.871	50	64	0	0	toaster	1666	64	0	stimuli\toaster\toaster_05s.jpg	4	-1	0	0	toaster_05s.jpg	0	0.0	0	173.33592072082698	173.38589947251597	0.0499787516891956	19871
19.971	50	65	0	0	plastic_film	1196	65	0	stimuli\plastic_film\plastic_film_11s.jpg	10	-1	0	0	plastic_film_11s.jpg	0	0.0	0	173.435920159798	173.485907932743	0.0499877729453146	19971
20.071	50	66	0	0	rudder	1339	66	0	stimuli\rudder\rudder_10s.jpg	9	-1	0	0	rudder_10s.jpg	0	0.0	0	173.535923256539	173.58590737218003	0.0499841156415641	20071
20.171	50	67	0	0	rooster	1330	67	0	stimuli\rooster\rooster_11s.jpg	10	-1	0	0	rooster_11s.jpg	0	0.0	0	173.635930741206	173.685915588401	0.0499848471954465	20171
20.271	50	68	0	0	screwdriver	1391	68	0	stimuli\screwdriver\screwdriver_01s.jpg	0	-1	0	0	screwdriver_01s.jpg	0	0.0	0	173.735931887291	173.785908932332	0.0499770450405777	20271
20.371	50	69	0	0	webcam	1799	69	0	stimuli\webcam\webcam_03s.jpg	2	-1	0	0	webcam_03s.jpg	1	0.0	0	173.83593376446498	173.885914223269	0.0499804588034749	20371
20.471	50	70	0	0	branch	192	70	0	stimuli\branch\branch_06s.jpg	5	-1	0	0	branch_06s.jpg	0	0.0	0	173.93593637319302	173.985915856902	0.0499794837087393	20471
20.571	50	71	0	0	turban	1730	71	0	stimuli\turban\turban_11s.jpg	10	-1	0	0	turban_11s.jpg	0	0.0	0	174.03593922592702	174.085921391379	0.0499821654520929	20571
20.671	50	72	0	0	raft	1275	72	0	stimuli\raft\raft_08s.jpg	7	-1	0	0	raft_08s.jpg	0	0.0	0	174.135941347107	174.185924000107	0.0499826529994607	20671
20.771	50	73	0	0	lipstick	936	73	0	stimuli\lipstick\lipstick_04s.jpg	3	-1	0	0	lipstick_04s.jpg	0	0.0	0	174.23594298073996	174.285928071477	0.0499850907362998	20771
20.871	50	74	0	0	tack	1611	74	0	stimuli\tack\tack_05s.jpg	4	-1	0	0	tack_05s.jpg	0	0.0	0	174.33595168450802	174.385930192657	0.0499785081483424	20871
20.971	50	75	0	0	roller_coaster	1325	75	0	stimuli\roller_coaster\roller_coaster_12s.jpg	11	-1	0	0	roller_coaster_12s.jpg	0	0.0	0	174.43595112394502	174.48593085119498	0.0499797272495925	20971
21.071	50	76	0	0	snowboard	1481	76	0	stimuli\snowboard\snowboard_12s.jpg	11	-1	0	0	snowboard_12s.jpg	0	0.0	0	174.53595153847698	174.585932240821	0.0499807023443282	21071
21.171	50	77	0	0	glasses	678	77	0	stimuli\glasses\glasses_07s.jpg	6	-1	0	0	glasses_07s.jpg	0	0.0	0	174.635955609847	174.68593996949502	0.0499843596480787	21171
21.271	50	78	0	0	girl	676	78	0	stimuli\girl\girl_02s.jpg	1	-1	0	0	girl_02s.jpg	0	0.0	0	174.73595553683103	174.785937945824	0.0499824089929461	21271
21.371	50	79	0	0	origami	1083	79	0	stimuli\origami\origami_04s.jpg	3	-1	0	0	origami_04s.jpg	1	0.0	0	174.835962533951	174.885944699403	0.0499821654520929	21371
21.471	50	80	0	0	satellite	1360	80	0	stimuli\satellite\satellite_07s.jpg	6	-1	0	0	satellite_07s.jpg	0	0.0	0	174.93596343603	174.985945113935	0.0499816779047251	21471
21.571	50	81	0	0	shower_curtain	1435	81	0	stimuli\shower_curtain\shower_curtain_03s.jpg	2	-1	0	0	shower_curtain_03s.jpg	0	0.0	0	175.035965313669	175.085947478656	0.0499821649864316	21571
21.671	50	82	0	0	lasagna	898	82	0	stimuli\lasagna\lasagna_03s.jpg	2	-1	0	0	lasagna_03s.jpg	0	0.0	0	175.13596645928902	175.185949112289	0.0499826529994607	21671
21.771	50	83	0	0	christmas_tree	341	83	0	stimuli\christmas_tree\christmas_tree_02s.jpg	1	-1	0	0	christmas_tree_02s.jpg	0	0.0	0	175.235972237773	175.285953184124	0.0499809463508427	21771
21.871	50	84	0	0	cane	258	84	0	stimuli\cane\cane_01s.jpg	0	-1	0	0	cane_01s.jpg	0	0.0	0	175.33597460249402	175.38595213554797	0.0499775330536067	21871
21.971	50	85	0	0	turtleneck	1737	85	0	stimuli\turtleneck\turtleneck_03s.jpg	2	-1	0	0	turtleneck_03s.jpg	0	0.0	0	175.43597526103298	175.485954988282	0.0499797272495925	21971
22.071	50	86	0	0	bonsai	164	86	0	stimuli\bonsai\bonsai_09s.jpg	8	-1	0	0	bonsai_09s.jpg	0	0.0	0	175.535977138206	175.58596271695598	0.0499855787493289	22071
22.171	50	87	0	0	swing_set	1599	87	0	stimuli\swing_set\swing_set_04s.jpg	3	-1	0	0	swing_set_04s.jpg	0	0.0	0	175.635981697589	175.685960937291	0.0499792397022247	22171
22.271	50	88	0	0	game	654	88	0	stimuli\game\game_12s.jpg	11	-1	0	0	game_12s.jpg	0	0.0	0	175.735985281412	175.78596403356602	0.0499787521548569	22271
22.371	50	89	0	0	bean	102	89	0	stimuli\bean\bean_12s.jpg	11	-1	0	0	bean_12s.jpg	0	0.0	0	175.835990328342	175.885971518233	0.049981189891696	22371
22.471	50	90	0	0	polar_bear	1211	90	0	stimuli\polar_bear\polar_bear_05s.jpg	4	-1	0	0	polar_bear_05s.jpg	0	0.0	0	175.935989036225	175.985968763474	0.0499797272495925	22471
22.571	50	91	0	0	eggnog	549	91	0	stimuli\eggnog\eggnog_02s.jpg	1	-1	0	0	eggnog_02s.jpg	0	0.0	0	176.035995302256	176.08597332285703	0.0499780206009746	22571
22.671	50	92	0	0	harmonica	753	92	0	stimuli\harmonica\harmonica_12s.jpg	11	-1	0	0	harmonica_12s.jpg	0	0.0	0	176.135995472781	176.185974956024	0.04997948324307799	22671
22.771	50	93	0	0	soda_fountain	1491	93	0	stimuli\soda_fountain\soda_fountain_05s.jpg	4	-1	0	0	soda_fountain_05s.jpg	0	0.0	0	176.23599905660402	176.28598000295503	0.0499809463508427	22771
22.871	50	94	0	0	coffee_pot	380	94	0	stimuli\coffee_pot\coffee_pot_04s.jpg	3	-1	0	0	coffee_pot_04s.jpg	1	0.0	0	176.336001177784	176.385981392581	0.0499802147969604	22871
22.971	50	95	0	0	scarecrow	1376	95	0	stimuli\scarecrow\scarecrow_01b.jpg	0	-1	0	0	scarecrow_01b.jpg	0	0.0	0	176.43600573716702	176.48598497686902	0.0499792397022247	22971
23.071	50	96	0	0	power_line	1237	96	0	stimuli\power_line\power_line_08s.jpg	7	-1	0	0	power_line_08s.jpg	0	0.0	0	176.536008101888	176.585989535786	0.0499814338982105	23071
23.171	50	97	0	0	blouse	144	97	0	stimuli\blouse\blouse_01b.jpg	0	-1	0	0	blouse_01b.jpg	0	0.0	0	176.63600851642	176.685990194324	0.0499816779047251	23171
23.271	50	98	0	0	peacock	1130	98	0	stimuli\peacock\peacock_12s.jpg	11	-1	0	0	peacock_12s.jpg	0	0.0	0	176.736011856701	176.785991339944	0.04997948324307799	23271
23.371	50	99	0	0	sandwich	1357	99	0	stimuli\sandwich\sandwich_02s.jpg	1	-1	0	0	sandwich_02s.jpg	0	0.0	0	176.836018366273	176.885993949138	0.0499755828641355	23371
23.471	50	100	0	0	cabbage	232	100	0	stimuli\cabbage\cabbage_07s.jpg	6	-1	0	0	cabbage_07s.jpg	0	0.0	0	176.936020975001	176.98599582631098	0.0499748513102531	23471
23.571	50	101	0	0	flamingo	608	101	0	stimuli\flamingo\flamingo_07s.jpg	6	-1	0	0	flamingo_07s.jpg	0	0.0	0	177.036023096181	177.086001116782	0.0499780206009746	23571
23.671	50	102	0	0	mold2	1013	102	0	stimuli\mold2\mold2_09s.jpg	8	-1	0	0	mold2_09s.jpg	0	0.0	0	177.13602253561797	177.186002750415	0.0499802147969604	23671
23.771	50	103	0	0	sweet_potato	1595	103	0	stimuli\sweet_potato\sweet_potato_12s.jpg	11	-1	0	0	sweet_potato_12s.jpg	0	0.0	0	177.23602343769699	177.286003164947	0.0499797272495925	23771
23.871	50	104	0	0	sofa_bed	1492	104	0	stimuli\sofa_bed\sofa_bed_12s.jpg	11	-1	0	0	sofa_bed_12s.jpg	0	0.0	0	177.336028240621	177.38601016206698	0.0499819214455783	23871
23.971	50	105	0	0	hamburger	740	105	0	stimuli\hamburger\hamburger_10s.jpg	9	-1	0	0	hamburger_10s.jpg	0	0.0	0	177.436030118261	177.486013014801	0.04998289654031401	23971
24.071	50	106	0	0	slide	1464	106	0	stimuli\slide\slide_04s.jpg	3	-1	0	0	slide_04s.jpg	0	0.0	0	177.536017610691	177.586013429333	0.0499958186410367	24071
24.171	50	107	0	0	wire	1828	107	0	stimuli\wire\wire_12s.jpg	11	-1	0	0	wire_12s.jpg	0	0.0	0	177.63603362906701	177.68601384386398	0.0499802147969604	24171
24.271	50	108	0	0	basketball_hoop	84	108	0	stimuli\basketball_hoop\basketball_hoop_12s.jpg	11	-1	0	0	basketball_hoop_12s.jpg	0	0.0	0	177.736036968883	177.785998410545	0.0499614416621625	24271
24.371	50	109	0	0	mannequin	968	109	0	stimuli\mannequin\mannequin_04s.jpg	3	-1	0	0	mannequin_04s.jpg	0	0.0	0	177.83604177227198	177.88602149952203	0.0499797272495925	24371
24.471	50	110	0	0	jewel	849	110	0	stimuli\jewel\jewel_05s.jpg	4	-1	0	0	jewel_05s.jpg	0	0.0	0	177.936045112554	177.986028253101	0.0499831405468285	24471
24.571	50	111	0	0	potholder	1232	111	0	stimuli\potholder\potholder_06s.jpg	5	-1	0	0	potholder_06s.jpg	0	0.0	0	178.036059423815	178.086031105369	0.0499716815538704	24571
24.671	50	112	0	0	sunflower	1584	112	0	stimuli\sunflower\sunflower_10s.jpg	9	-1	0	0	sunflower_10s.jpg	0	0.0	0	178.13604837935398	178.186030057259	0.0499816779047251	24671
24.771	50	113	0	0	bottle_opener	171	113	0	stimuli\bottle_opener\bottle_opener_05s.jpg	4	-1	0	0	bottle_opener_05s.jpg	1	0.0	0	178.23605318227797	178.286025351379	0.0499721691012383	24771
24.871	50	114	0	0	hair	733	114	0	stimuli\hair\hair_06s.jpg	5	-1	0	0	hair_06s.jpg	0	0.0	0	178.336054328363	178.386034299154	0.0499799707904458	24871
24.971	50	115	0	0	cannon	260	115	0	stimuli\cannon\cannon_11s.jpg	10	-1	0	0	cannon_11s.jpg	0	0.0	0	178.436078392435	178.486034957692	0.0499565652571619	24971
25.071	50	116	0	0	rocket	1320	116	0	stimuli\rocket\rocket_07s.jpg	6	-1	0	0	rocket_07s.jpg	0	0.0	0	178.53605978982498	178.586045368109	0.0499855782836676	25071
25.171	50	117	0	0	bow3	176	117	0	stimuli\bow3\bow3_08s.jpg	7	-1	0	0	bow3_08s.jpg	0	0.0	0	178.636063373648	178.68604407599202	0.0499807023443282	25171
25.271	50	118	0	0	satellite_dish	1361	118	0	stimuli\satellite_dish\satellite_dish_08s.jpg	7	-1	0	0	satellite_dish_08s.jpg	0	0.0	0	178.736067201477	178.786046441179	0.0499792397022247	25271
25.371	50	119	0	0	sorbet	1497	119	0	stimuli\sorbet\sorbet_11s.jpg	10	-1	0	0	sorbet_11s.jpg	0	0.0	0	178.836068347562	178.88605173165	0.0499833840876818	25371
25.471	50	120	0	0	cheetah	315	120	0	stimuli\cheetah\cheetah_02s.jpg	1	-1	0	0	cheetah_02s.jpg	0	0.0	0	178.93607022473597	178.986077989917	0.0500077651813626	25471
25.571	50	121	0	0	pillbox	1175	121	0	stimuli\pillbox\pillbox_11s.jpg	10	-1	0	0	pillbox_11s.jpg	0	0.0	0	179.03607234591598	179.086055486463	0.0499831405468285	25571
25.671	50	122	0	0	thumb	1653	122	0	stimuli\thumb\thumb_11s.jpg	10	-1	0	0	thumb_11s.jpg	0	0.0	0	179.13607471063702	179.18605785118402	0.0499831405468285	25671
25.771	50	123	0	0	football	629	123	0	stimuli\football\football_09s.jpg	8	-1	0	0	football_09s.jpg	0	0.0	0	179.23607902601398	179.286059484817	0.0499804588034749	25771
25.871	50	124	0	0	buoy	223	124	0	stimuli\buoy\buoy_02s.jpg	1	-1	0	0	buoy_02s.jpg	0	0.0	0	179.336079684552	179.386061362457	0.0499816779047251	25871
25.971	50	125	0	0	sheath	1413	125	0	stimuli\sheath\sheath_03s.jpg	2	-1	0	0	sheath_03s.jpg	0	0.0	0	179.43608204927298	179.486062995624	0.0499809463508427	25971
26.071	50	126	0	0	paint	1096	126	0	stimuli\paint\paint_12s.jpg	11	-1	0	0	paint_12s.jpg	0	0.0	0	179.53608977841202	179.586070724297	0.0499809458851814	26071
26.171	50	127	0	0	key	869	127	0	stimuli\key\key_01b.jpg	0	-1	0	0	key_01b.jpg	0	0.0	0	179.636092874687	179.686075040139	0.0499821654520929	26171
26.271	50	128	0	0	leash	907	128	0	stimuli\leash\leash_05s.jpg	4	-1	0	0	leash_05s.jpg	1	0.0	0	179.736092070118	179.786073260009	0.049981189891696	26271
26.371	50	129	0	0	plug	1202	129	0	stimuli\plug\plug_12s.jpg	11	-1	0	0	plug_12s.jpg	0	0.0	0	179.836093703751	179.88607538118998	0.0499816774390638	26371
26.471	50	130	0	0	barrette	77	130	0	stimuli\barrette\barrette_12s.jpg	11	-1	0	0	barrette_12s.jpg	0	0.0	0	179.936098262668	179.986076770816	0.0499785081483424	26471
26.571	50	131	0	0	chair	300	131	0	stimuli\chair\chair_03s.jpg	2	-1	0	0	chair_03s.jpg	0	0.0	0	180.036100871395	180.086086450145	0.0499855787493289	26571
26.671	50	132	0	0	air_mattress	5	132	0	stimuli\air_mattress\air_mattress_12s.jpg	11	-1	0	0	air_mattress_12s.jpg	0	0.0	0	180.136104211677	180.186084914021	0.0499807023443282	26671
26.771	50	133	0	0	bullet	216	133	0	stimuli\bullet\bullet_12n.jpg	11	-1	0	0	bullet_12n.jpg	0	0.0	0	180.236104138661	180.28608557255902	0.0499814338982105	26771
26.871	50	134	0	0	tank1	1620	134	0	stimuli\tank1\tank1_07s.jpg	6	-1	0	0	tank1_07s.jpg	0	0.0	0	180.33610845403703	180.386087449733	0.0499789956957102	26871
26.971	50	135	0	0	tractor	1695	135	0	stimuli\tractor\tractor_01b.jpg	0	-1	0	0	tractor_01b.jpg	0	0.0	0	180.436109843664	180.48609322821702	0.0499833845533431	26971
27.071	50	136	0	0	candlestick	254	136	0	stimuli\candlestick\candlestick_04s.jpg	3	-1	0	0	candlestick_04s.jpg	0	0.0	0	180.53611269639802	180.58609339874198	0.0499807023443282	27071
27.171	50	137	0	0	wafer	1769	137	0	stimuli\wafer\wafer_03s.jpg	2	-1	0	0	wafer_03s.jpg	0	0.0	0	180.636114086024	180.686097226571	0.0499831405468285	27171
27.271	50	138	0	0	spam	1504	138	0	stimuli\spam\spam_02s.jpg	1	-1	0	0	spam_02s.jpg	0	0.0	0	180.73611913295503	180.78609934775199	0.0499802147969604	27271
27.371	50	139	0	0	aquarium	34	139	0	stimuli\aquarium\aquarium_12s.jpg	11	-1	0	0	aquarium_12s.jpg	0	0.0	0	180.83612515498	180.886100249831	0.0499750948511064	27371
27.471	50	140	0	0	sundae	1582	140	0	stimuli\sundae\sundae_05s.jpg	4	-1	0	0	sundae_05s.jpg	0	0.0	0	180.936124837957	180.98610797850398	0.0499831405468285	27471
27.571	50	141	0	0	top_hat	1682	141	0	stimuli\top_hat\top_hat_02s.jpg	1	-1	0	0	top_hat_02s.jpg	0	0.0	0	181.03612452093498	181.08610912459	0.0499846036545932	27571
27.671	50	142	0	0	swing	1598	142	0	stimuli\swing\swing_04s.jpg	3	-1	0	0	swing_04s.jpg	0	0.0	0	181.136128105223	181.186110026669	0.0499819214455783	27671
27.771	50	143	0	0	gondola	691	143	0	stimuli\gondola\gondola_07s.jpg	6	-1	0	0	gondola_07s.jpg	0	0.0	0	181.236132908147	181.286119949538	0.0499870413914323	27771
27.871	50	144	0	0	calf2	242	144	0	stimuli\calf2\calf2_06s.jpg	5	-1	0	0	calf2_06s.jpg	1	0.0	0	181.336137223523	181.38611841388	0.0499811903573573	27871
27.971	50	145	0	0	slipper	1468	145	0	stimuli\slipper\slipper_10s.jpg	9	-1	0	0	slipper_10s.jpg	0	0.0	0	181.43613812560199	181.486119071953	0.0499809463508427	27971
28.071	50	146	0	0	overalls	1090	146	0	stimuli\overalls\overalls_03s.jpg	2	-1	0	0	overalls_03s.jpg	0	0.0	0	181.536139515229	181.586122899782	0.0499833845533431	28071
28.171	50	147	0	0	wreck	1840	147	0	stimuli\wreck\wreck_03s.jpg	2	-1	0	0	wreck_03s.jpg	0	0.0	0	181.636142367963	181.68612477695598	0.0499824089929461	28171
28.271	50	148	0	0	dumbbell	530	148	0	stimuli\dumbbell\dumbbell_07s.jpg	6	-1	0	0	dumbbell_07s.jpg	0	0.0	0	181.736147414893	181.78613055544	0.0499831405468285	28271
28.371	50	149	0	0	steak	1544	149	0	stimuli\steak\steak_04s.jpg	3	-1	0	0	steak_04s.jpg	0	0.0	0	181.836156606209	181.88613023841802	0.049973632209003	28371
28.471	50	150	0	0	shuffleboard	1439	150	0	stimuli\shuffleboard\shuffleboard_05s.jpg	4	-1	0	0	shuffleboard_05s.jpg	0	0.0	0	181.93615214480099	181.986128946301	0.0499768014997244	28471
28.571	50	151	0	0	lip_balm	934	151	0	stimuli\lip_balm\lip_balm_04s.jpg	3	-1	0	0	lip_balm_04s.jpg	0	0.0	0	182.03615450952202	182.086133505683	0.0499789961613715	28571
28.671	50	152	0	0	gourd	696	152	0	stimuli\gourd\gourd_04s.jpg	3	-1	0	1	gourd_04s.jpg	0	0.0	0	182.13615394895902	182.186139040161	0.04998509120196099	28671
28.771	50	153	0	0	honeycomb	789	153	0	stimuli\honeycomb\honeycomb_07n.jpg	6	-1	0	0	honeycomb_07n.jpg	0	0.0	0	182.23615802032901	182.28614457463797	0.0499865543097258	28771
28.871	50	154	0	0	bowler_hat	178	154	0	stimuli\bowler_hat\bowler_hat_02s.jpg	1	-1	0	0	bowler_hat_02s.jpg	0	0.0	0	182.33616745611698	182.386140844319	0.0499733882024884	28871
28.971	50	155	0	0	skull	1458	155	0	stimuli\skull\skull_06s.jpg	5	-1	0	0	skull_06s.jpg	0	0.0	0	182.436163969338	182.486144915689	0.0499809463508427	28971
29.071	50	156	0	0	banjo	68	156	0	stimuli\banjo\banjo_07s.jpg	6	-1	0	0	banjo_07s.jpg	0	0.0	0	182.53616877272702	182.58614654932202	0.049977776594460004	29071
29.171	50	157	0	0	braid	190	157	0	stimuli\braid\braid_01b.jpg	0	-1	0	0	braid_01b.jpg	0	0.0	0	182.636166749056	182.686149889603	0.0499831405468285	29171
29.271	50	158	0	0	slot	1469	158	0	stimuli\slot\slot_10s.jpg	9	-1	0	0	slot_10s.jpg	0	0.0	0	182.736173258629	182.78615371743197	0.0499804588034749	29271
29.371	50	159	0	0	couch	422	159	0	stimuli\couch\couch_02s.jpg	1	-1	0	0	couch_02s.jpg	0	0.0	0	182.836177574005	182.886154131964	0.0499765579588711	29371
29.471	50	160	0	0	vent	1758	160	0	stimuli\vent\vent_06s.jpg	5	-1	0	0	vent_06s.jpg	0	0.0	0	182.936180182733	182.98616234818502	0.0499821654520929	29471
29.571	50	161	0	0	inhaler	828	161	0	stimuli\inhaler\inhaler_09s.jpg	8	-1	0	0	inhaler_09s.jpg	0	0.0	0	183.03618059726398	183.086160324514	0.0499797272495925	29571
29.671	50	162	0	0	contact_lens	397	162	0	stimuli\contact_lens\contact_lens_11s.jpg	10	-1	0	0	contact_lens_11s.jpg	0	0.0	0	183.136182230897	183.186162933242	0.0499807023443282	29671
29.771	50	163	0	0	seesaw	1402	163	0	stimuli\seesaw\seesaw_04s.jpg	3	-1	0	0	seesaw_04s.jpg	0	0.0	0	183.23618532717202	183.286168711726	0.0499833845533431	29771
29.871	50	164	0	0	pinball	1178	164	0	stimuli\pinball\pinball_12s.jpg	11	-1	0	0	pinball_12s.jpg	0	0.0	0	183.336187448353	183.386169857346	0.0499824089929461	29871
29.971	50	165	0	0	incense	826	165	0	stimuli\incense\incense_02s.jpg	1	-1	0	0	incense_02s.jpg	0	0.0	0	183.436194201931	183.48617319762698	0.0499789956957102	29971
30.071	50	166	0	0	dumpster	533	166	0	stimuli\dumpster\dumpster_07s.jpg	6	-1	0	0	dumpster_07s.jpg	0	0.0	0	183.536195591558	183.586174587253	0.0499789956957102	30071
30.171	50	167	0	0	polygraph	1217	167	0	stimuli\polygraph\polygraph_01b.jpg	0	-1	0	0	polygraph_01b.jpg	0	0.0	0	183.63619624963002	183.68617500178502	0.0499787521548569	30171
30.271	50	168	0	0	playpen	1200	168	0	stimuli\playpen\playpen_08s.jpg	7	-1	0	0	playpen_08s.jpg	0	0.0	0	183.736199102364	183.786182974465	0.0499838721007109	30271
30.371	50	169	0	0	jackhammer	837	169	0	stimuli\jackhammer\jackhammer_11s.jpg	10	-1	0	0	jackhammer_11s.jpg	0	0.0	0	183.83620634349097	183.886187289841	0.0499809463508427	30371
30.471	50	170	0	0	telephone_pole	1639	170	0	stimuli\telephone_pole\telephone_pole_04s.jpg	3	-1	0	0	telephone_pole_04s.jpg	1	0.0	0	183.936206270475	183.98621184146	0.0500055709853768	30471
30.571	50	171	0	0	gem	670	171	0	stimuli\gem\gem_06s.jpg	5	-1	0	0	gem_06s.jpg	0	0.0	0	184.036206441	184.086191532202	0.04998509120196099	30571
30.671	50	172	0	0	hydrant	814	172	0	stimuli\hydrant\hydrant_12s.jpg	11	-1	0	0	hydrant_12s.jpg	0	0.0	0	184.13620929373403	184.18619121518	0.0499819214455783	30671
30.771	50	173	0	0	gravestone	710	173	0	stimuli\gravestone\gravestone_06s.jpg	5	-1	0	0	gravestone_06s.jpg	0	0.0	0	184.236211902462	184.286192604806	0.0499807023443282	30771
30.871	50	174	0	0	beard	106	174	0	stimuli\beard\beard_10s.jpg	9	-1	0	0	beard_10s.jpg	0	0.0	0	184.336218412034	184.386203015689	0.0499846036545932	30871
30.971	50	175	0	0	vest	1759	175	0	stimuli\vest\vest_09s.jpg	8	-1	0	0	vest_09s.jpg	0	0.0	0	184.436223214958	184.486201235559	0.0499780206009746	30971
31.071	50	176	0	0	palette	1100	176	0	stimuli\palette\palette_12s.jpg	11	-1	0	0	palette_12s.jpg	0	0.0	0	184.536219485104	184.586200430989	0.0499809458851814	31071
31.171	50	177	0	0	cloud	364	177	0	stimuli\cloud\cloud_06s.jpg	5	-1	0	0	cloud_06s.jpg	0	0.0	0	184.63622550712898	184.68620401527699	0.0499785081483424	31171
31.271	50	178	0	0	syringe	1604	178	0	stimuli\syringe\syringe_05s.jpg	4	-1	0	0	syringe_05s.jpg	0	0.0	0	184.73622811585702	184.78620637999802	0.0499782641418278	31271
31.371	50	179	0	0	coil	384	179	0	stimuli\coil\coil_11s.jpg	10	-1	0	0	coil_11s.jpg	0	0.0	0	184.83622877392898	184.886209232733	0.0499804588034749	31371
31.471	50	180	0	0	sim_card	1446	180	0	stimuli\sim_card\sim_card_01b.jpg	0	-1	0	0	sim_card_01b.jpg	0	0.0	0	184.936229920015	184.986215010751	0.0499850907362998	31471
31.571	50	181	0	0	spear	1510	181	0	stimuli\spear\spear_01s.jpg	0	-1	0	0	spear_01s.jpg	0	0.0	0	185.036239355337	185.086215425283	0.049976069945842	31571
31.671	50	182	0	0	beanie	104	182	0	stimuli\beanie\beanie_02s.jpg	1	-1	0	0	beanie_02s.jpg	0	0.0	0	185.136236356571	185.186219253112	0.04998289654031401	31671
31.771	50	183	0	0	scale	1371	183	0	stimuli\scale\scale_11s.jpg	10	-1	0	0	scale_11s.jpg	0	0.0	0	185.23623994039397	185.286220399197	0.0499804588034749	31771
31.871	50	184	0	0	denture	478	184	0	stimuli\denture\denture_11s.jpg	10	-1	0	0	denture_11s.jpg	1	0.0	0	185.336243524682	185.38622105727	0.0499775325879455	31871
31.971	50	185	0	0	flip_flop	614	185	0	stimuli\flip_flop\flip_flop_02s.jpg	1	-1	0	0	flip_flop_02s.jpg	0	0.0	0	185.436245889403	185.48622586065898	0.0499799712561071	31971
32.071	50	186	0	0	crystal2	454	186	0	stimuli\crystal2\crystal2_07s.jpg	6	-1	0	0	crystal2_07s.jpg	0	0.0	0	185.536255568732	185.586229444481	0.0499738757498562	32071
32.171	50	187	0	0	grate	707	187	0	stimuli\grate\grate_05s.jpg	4	-1	0	0	grate_05s.jpg	0	0.0	0	185.63625183841202	185.686232297216	0.0499804588034749	32171
32.271	50	188	0	0	tongs	1674	188	0	stimuli\tongs\tongs_12s.jpg	11	-1	0	0	tongs_12s.jpg	0	0.0	0	185.736251277849	185.786233199295	0.0499819214455783	32271
32.371	50	189	0	0	swab	1590	189	0	stimuli\swab\swab_11s.jpg	10	-1	0	0	swab_11s.jpg	0	0.0	0	185.836254130118	185.886210939381	0.0499568092636764	32371
32.471	50	190	0	0	cross	443	190	0	stimuli\cross\cross_12s.jpg	11	-1	0	0	cross_12s.jpg	0	0.0	0	185.936264296994	185.986241098493	0.0499768014997244	32471
32.571	50	191	0	0	hole	785	191	0	stimuli\hole\hole_03s.jpg	2	-1	0	0	hole_03s.jpg	0	0.0	0	186.036262517329	186.086244926322	0.0499824089929461	32571
32.671	50	192	0	0	hopscotch	796	192	0	stimuli\hopscotch\hopscotch_11s.jpg	10	-1	0	0	hopscotch_11s.jpg	0	0.0	0	186.136270001996	186.186248022597	0.0499780206009746	32671
32.771	50	193	0	0	cup	460	193	0	stimuli\cup\cup_12s.jpg	11	-1	0	0	cup_12s.jpg	0	0.0	0	186.23626627214298	186.286252338439	0.0499860662966967	32771
32.871	50	194	0	0	bikini	124	194	0	stimuli\bikini\bikini_12s.jpg	11	-1	0	0	bikini_12s.jpg	0	0.0	0	186.33626912441102	186.38624860812	0.0499794837087393	32871
32.971	50	195	0	0	llama	938	195	0	stimuli\llama\llama_06s.jpg	5	-1	0	0	llama_06s.jpg	0	0.0	0	186.436271733139	186.486255849246	0.0499841161072254	32971
33.071	50	196	0	0	mouse1	1026	196	0	stimuli\mouse1\mouse1_09s.jpg	8	-1	0	0	mouse1_09s.jpg	0	0.0	0	186.53627653652802	186.586257238872	0.0499807023443282	33071
33.171	50	197	0	0	washing_machine	1784	197	0	stimuli\washing_machine\washing_machine_07s.jpg	6	-1	0	0	washing_machine_07s.jpg	0	0.0	0	186.63628012035	186.686264235992	0.0499841156415641	33171
33.271	50	198	0	0	window	1818	198	0	stimuli\window\window_10s.jpg	9	-1	0	0	window_10s.jpg	1	0.0	0	186.736281266436	186.786259286571	0.0499780201353133	33271
33.371	50	199	0	0	bagel	55	199	0	stimuli\bagel\bagel_07s.jpg	6	-1	0	0	bagel_07s.jpg	0	0.0	0	186.83628485025798	186.886264577508	0.0499797272495925	33371
33.471	50	200	0	0	backgammon	48	200	0	stimuli\backgammon\backgammon_10s.jpg	9	-1	0	0	backgammon_10s.jpg	0	0.0	0	186.93628355814099	186.986267186236	0.0499836280941963	33471
33.571	50	201	0	0	paperweight	1117	201	0	stimuli\paperweight\paperweight_07s.jpg	6	-1	0	0	paperweight_07s.jpg	0	0.0	0	187.03628933616002	187.086268575862	0.0499792397022247	33571
33.671	50	202	0	0	punch2	1255	202	0	stimuli\punch2\punch2_06s.jpg	5	-1	0	0	punch2_06s.jpg	0	0.0	0	187.136291944887	187.186272647697	0.0499807028099895	33671
33.771	50	203	0	0	nail	1046	203	0	stimuli\nail\nail_08s.jpg	7	-1	0	0	nail_08s.jpg	0	0.0	0	187.23629479762198	187.28628232656	0.0499875289388001	33771
33.871	50	204	0	0	mouth	1031	204	0	stimuli\mouth\mouth_04s.jpg	3	-1	0	0	mouth_04s.jpg	0	0.0	0	187.336296187248	187.38627689005799	0.0499807028099895	33871
33.971	50	205	0	0	muffin	1035	205	0	stimuli\muffin\muffin_04n.jpg	3	-1	0	0	muffin_04n.jpg	0	0.0	0	187.43629952753002	187.48628047388002	0.0499809463508427	33971
34.071	50	206	0	0	butter	228	206	0	stimuli\butter\butter_05s.jpg	4	-1	0	0	butter_05s.jpg	0	0.0	0	187.536303355359	187.586282107513	0.0499787521548569	34071
34.171	50	207	0	0	pinwheel	1185	207	0	stimuli\pinwheel\pinwheel_09n.jpg	8	-1	0	1	pinwheel_09n.jpg	0	0.0	0	187.636305232532	187.68628910463298	0.0499838721007109	34171
34.271	50	208	0	0	water_filter	1789	208	0	stimuli\water_filter\water_filter_12s.jpg	11	-1	0	0	water_filter_12s.jpg	0	0.0	0	187.736309791915	187.786290494259	0.0499807023443282	34271
34.371	50	209	0	0	earplug	539	209	0	stimuli\earplug\earplug_03s.jpg	2	-1	0	0	earplug_03s.jpg	0	0.0	0	187.83631288819	187.886289933696	0.0499770455062389	34371
34.471	50	210	0	0	crucifix	449	210	0	stimuli\crucifix\crucifix_06s.jpg	5	-1	0	0	crucifix_06s.jpg	0	0.0	0	187.93631354672797	187.98629424907298	0.0499807023443282	34471
34.571	50	211	0	0	cape	266	211	0	stimuli\cape\cape_11s.jpg	10	-1	0	0	cape_11s.jpg	0	0.0	0	188.036316643003	188.086299539544	0.04998289654031401	34571
34.671	50	212	0	0	letter_opener	919	212	0	stimuli\letter_opener\letter_opener_12s.jpg	11	-1	0	0	letter_opener_12s.jpg	0	0.0	0	188.136322909035	188.18629995407503	0.0499770450405777	34671
34.771	50	213	0	0	straightjacket	1565	213	0	stimuli\straightjacket\straightjacket_09s.jpg	8	-1	0	0	straightjacket_09s.jpg	0	0.0	0	188.236321616452	188.286302075256	0.0499804588034749	34771
34.871	50	214	0	0	hose	800	214	0	stimuli\hose\hose_06s.jpg	5	-1	0	0	hose_06s.jpg	0	0.0	0	188.336322518997	188.38630370888902	0.049981189891696	34871
34.971	50	215	0	0	cherry	316	215	0	stimuli\cherry\cherry_09s.jpg	8	-1	0	0	cherry_09s.jpg	0	0.0	0	188.436324152164	188.486305342522	0.0499811903573573	34971
35.071	50	216	0	0	doorknocker	510	216	0	stimuli\doorknocker\doorknocker_12s.jpg	11	-1	0	0	doorknocker_12s.jpg	0	0.0	0	188.536327736452	188.586309413891	0.0499816774390638	35071
35.171	50	217	0	0	alligator	12	217	0	stimuli\alligator\alligator_04s.jpg	3	-1	0	0	alligator_04s.jpg	0	0.0	0	188.636334002018	188.68631324172	0.0499792397022247	35171
35.271	50	218	0	0	bunkbed	222	218	0	stimuli\bunkbed\bunkbed_02s.jpg	1	-1	0	0	bunkbed_02s.jpg	0	0.0	0	188.73633563565102	188.78631877619802	0.0499831405468285	35271
35.371	50	219	0	0	shovel	1432	219	0	stimuli\shovel\shovel_08n.jpg	7	-1	0	0	shovel_08n.jpg	0	0.0	0	188.83633946348	188.88631699653303	0.0499775330536067	35371
35.471	50	220	0	0	tent	1643	220	0	stimuli\tent\tent_08n.jpg	7	-1	0	0	tent_08n.jpg	0	0.0	0	188.936340365559	188.986320336815	0.0499799712561071	35471
35.571	50	221	0	0	windshield_wiper	1821	221	0	stimuli\windshield_wiper\windshield_wiper_01b.jpg	0	-1	0	0	windshield_wiper_01b.jpg	0	0.0	0	189.03634248673902	189.086324652191	0.0499821654520929	35571
35.671	50	222	0	0	petri_dish	1159	222	0	stimuli\petri_dish\petri_dish_08s.jpg	7	-1	0	0	petri_dish_08s.jpg	0	0.0	0	189.13634680211499	189.186324091163	0.0499772890470922	35671
35.771	50	223	0	0	radish	1274	223	0	stimuli\radish\radish_07s.jpg	6	-1	0	0	radish_07s.jpg	0	0.0	0	189.23634941084302	189.28633157629503	0.0499821654520929	35771
35.871	50	224	0	0	jewelry	850	224	0	stimuli\jewelry\jewelry_06s.jpg	5	-1	0	0	jewelry_06s.jpg	0	0.0	0	189.33634958183399	189.386334185023	0.0499846031889319	35871
35.971	50	225	0	0	corkscrew	411	225	0	stimuli\corkscrew\corkscrew_12s.jpg	11	-1	0	0	corkscrew_12s.jpg	0	0.0	0	189.43635706650102	189.48631948325803	0.0499624167568982	35971
36.071	50	226	0	0	wheat	1805	226	0	stimuli\wheat\wheat_11s.jpg	10	-1	0	0	wheat_11s.jpg	1	0.0	0	189.53635358018798	189.58633623318698	0.0499826529994607	36071
36.171	50	227	0	0	keyboard	870	227	0	stimuli\keyboard\keyboard_09s.jpg	8	-1	0	0	keyboard_09s.jpg	0	0.0	0	189.63635594490898	189.686341036111	0.04998509120196099	36171
36.271	50	228	0	0	truck	1720	228	0	stimuli\truck\truck_04n.jpg	3	-1	0	0	truck_04n.jpg	0	0.0	0	189.736366599333	189.786344619934	0.0499780206009746	36271
36.371	50	229	0	0	apple	30	229	0	stimuli\apple\apple_05s.jpg	4	-1	0	0	apple_05s.jpg	0	0.0	0	189.836366526317	189.88634698512	0.0499804588034749	36371
36.471	50	230	0	0	wedding_cake	1800	230	0	stimuli\wedding_cake\wedding_cake_01b.jpg	0	-1	0	0	wedding_cake_01b.jpg	0	0.0	0	189.93636742839598	189.986351300497	0.0499838721007109	36471
36.571	50	231	0	0	hearing_aid	770	231	0	stimuli\hearing_aid\hearing_aid_02s.jpg	1	-1	0	0	hearing_aid_02s.jpg	1	0.0	0	190.036367598921	190.08634927682598	0.0499816779047251	36571
36.671	50	232	0	0	cake_mix	238	232	0	stimuli\cake_mix\cake_mix_09s.jpg	8	-1	0	0	cake_mix_09s.jpg	0	0.0	0	190.136372158304	190.18635212956002	0.0499799712561071	36671
36.771	50	233	0	0	gift	672	233	0	stimuli\gift\gift_06s.jpg	5	-1	0	0	gift_06s.jpg	0	0.0	0	190.236377205234	190.28635717649	0.0499799712561071	36771
36.871	50	234	0	0	freezer	640	234	0	stimuli\freezer\freezer_04s.jpg	3	-1	0	0	freezer_04s.jpg	0	0.0	0	190.336379326414	190.38635905366402	0.0499797272495925	36871
36.971	50	235	0	0	duster	534	235	0	stimuli\duster\duster_10s.jpg	9	-1	0	0	duster_10s.jpg	0	0.0	0	190.436380228493	190.486342157703	0.0499619292095304	36971
37.071	50	236	0	0	palm_tree	1102	236	0	stimuli\palm_tree\palm_tree_09s.jpg	8	-1	0	0	palm_tree_09s.jpg	0	0.0	0	190.536381374579	190.586363539565	0.0499821649864316	37071
37.171	50	237	0	0	cardinal	274	237	0	stimuli\cardinal\cardinal_01b.jpg	0	-1	0	0	cardinal_01b.jpg	1	0.0	0	190.63638690905603	190.68636419810397	0.0499772890470922	37171
37.271	50	238	0	0	panties	1107	238	0	stimuli\panties\panties_07s.jpg	6	-1	0	0	panties_07s.jpg	0	0.0	0	190.736389273778	190.78637338941897	0.0499841156415641	37271
37.371	50	239	0	0	totem_pole	1689	239	0	stimuli\totem_pole\totem_pole_01b.jpg	0	-1	0	0	totem_pole_01b.jpg	0	0.0	0	190.836391394958	190.886374047957	0.0499826529994607	37371
37.471	50	240	0	0	checkbook	310	240	0	stimuli\checkbook\checkbook_10s.jpg	9	-1	0	0	checkbook_10s.jpg	0	0.0	0	190.93639790453	190.986374462489	0.0499765579588711	37471
37.571	50	241	0	0	shell2	1418	241	0	stimuli\shell2\shell2_12s.jpg	11	-1	0	0	shell2_12s.jpg	0	0.0	0	191.036394174211	191.086381459609	0.0499872853979468	37571
37.671	50	242	0	0	dogfood	496	242	0	stimuli\dogfood\dogfood_06s.jpg	5	-1	0	0	dogfood_06s.jpg	0	0.0	0	191.13642262714	191.186379192397	0.0499565652571619	37671
37.771	50	243	0	0	cordon_bleu	408	243	0	stimuli\cordon_bleu\cordon_bleu_06s.jpg	5	-1	0	0	cordon_bleu_06s.jpg	1	0.0	0	191.23640134232102	191.28638350777302	0.0499821654520929	37771
37.871	50	244	0	0	diamond	484	244	0	stimuli\diamond\diamond_07s.jpg	6	-1	0	0	diamond_07s.jpg	0	0.0	0	191.336409558542	191.38638440985198	0.0499748513102531	37871
37.971	50	245	0	0	bathmat	89	245	0	stimuli\bathmat\bathmat_11s.jpg	10	-1	0	0	bathmat_11s.jpg	0	0.0	0	191.43641216773497	191.486388481222	0.0499763134866953	37971
38.071	50	246	0	0	bra	185	246	0	stimuli\bra\bra_06s.jpg	5	-1	0	0	bra_06s.jpg	0	0.0	0	191.536411363166	191.586395234801	0.0499838716350496	38071
38.171	50	247	0	0	videogame	1762	247	0	stimuli\videogame\videogame_07s.jpg	6	-1	0	0	videogame_07s.jpg	0	0.0	0	191.636410070583	191.686389797833	0.0499797272495925	38171
38.271	50	248	0	0	mask	980	248	0	stimuli\mask\mask_06s.jpg	5	-1	0	0	mask_06s.jpg	0	0.0	0	191.736420725007	191.78639533231004	0.0499746073037386	38271
38.371	50	249	0	0	teapot	1634	249	0	stimuli\teapot\teapot_10s.jpg	9	-1	0	0	teapot_10s.jpg	0	0.0	0	191.836416019592	191.886398916598	0.0499828970059752	38371
38.471	50	250	0	0	eraser	559	250	0	stimuli\eraser\eraser_05s.jpg	4	-1	0	0	eraser_05s.jpg	0	0.0	0	191.93642301717802	191.986406401265	0.0499833840876818	38471
38.571	50	251	0	0	rollerblade	1326	251	0	stimuli\rollerblade\rollerblade_05s.jpg	4	-1	0	0	rollerblade_05s.jpg	0	0.0	0	192.036425869446	192.0864034025	0.0499775330536067	38571
38.671	50	252	0	0	boa	150	252	0	stimuli\boa\boa_03s.jpg	2	-1	0	0	boa_03s.jpg	0	0.0	0	192.136428234633	192.18641113117297	0.04998289654031401	38671
38.771	50	253	0	0	measuring_cup	986	253	0	stimuli\measuring_cup\measuring_cup_09s.jpg	8	-1	0	0	measuring_cup_09s.jpg	0	0.0	0	192.23643962061	192.28640861995498	0.0499689993448555	38771
38.871	50	254	0	0	shutter	1440	254	0	stimuli\shutter\shutter_01b.jpg	0	-1	0	0	shutter_01b.jpg	0	0.0	0	192.336431257892	192.38641561753997	0.0499843596480787	38871
38.971	50	255	0	0	gorilla	695	255	0	stimuli\gorilla\gorilla_02s.jpg	1	-1	0	0	gorilla_02s.jpg	0	0.0	0	192.43643801147098	192.48641627561298	0.0499782641418278	38971
39.071	50	256	0	0	celery	291	256	0	stimuli\celery\celery_03s.jpg	2	-1	0	0	celery_03s.jpg	0	0.0	0	192.536440132651	192.586430343334	0.0499902106821537	39071
39.171	50	257	0	0	garbage	655	257	0	stimuli\garbage\garbage_09s.jpg	8	-1	0	0	garbage_09s.jpg	0	0.0	0	192.63643713342	192.68641783623002	0.0499807028099895	39171
39.271	50	258	0	0	cucumber	457	258	0	stimuli\cucumber\cucumber_03s.jpg	2	-1	0	0	cucumber_03s.jpg	0	0.0	0	192.736443643458	192.786420444958	0.0499768014997244	39271
39.371	50	259	0	0	amplifier	20	259	0	stimuli\amplifier\amplifier_09s.jpg	8	-1	0	0	amplifier_09s.jpg	0	0.0	0	192.836447958834	192.88642695452998	0.0499789956957102	39371
39.471	50	260	0	0	soldering_iron	1494	260	0	stimuli\soldering_iron\soldering_iron_09s.jpg	8	-1	0	0	soldering_iron_09s.jpg	0	0.0	0	192.93645105511	192.98642907571	0.0499780206009746	39471
39.571	50	261	0	0	counter	424	261	0	stimuli\counter\counter_11s.jpg	10	-1	0	0	counter_11s.jpg	0	0.0	0	193.036451225635	193.086430952884	0.0499797272495925	39571
39.671	50	262	0	0	marble	972	262	0	stimuli\marble\marble_02s.jpg	1	-1	0	0	marble_02s.jpg	0	0.0	0	193.136459198315	193.18643502472	0.0499758264049888	39671
39.771	50	263	0	0	rifle	1311	263	0	stimuli\rifle\rifle_06s.jpg	5	-1	0	0	rifle_06s.jpg	1	0.0	0	193.236454736441	193.286437633447	0.0499828970059752	39771
39.871	50	264	0	0	charcoal	307	264	0	stimuli\charcoal\charcoal_03s.jpg	2	-1	0	0	charcoal_03s.jpg	0	0.0	0	193.336460027378	193.386438779533	0.0499787521548569	39871
39.971	50	265	0	0	zipper	1852	265	0	stimuli\zipper\zipper_08s.jpg	7	-1	0	0	zipper_08s.jpg	0	0.0	0	193.43647116934898	193.48641968891002	0.0499485195614398	39971
40.071	50	266	0	0	pickax	1166	266	0	stimuli\pickax\pickax_03s.jpg	2	-1	0	0	pickax_03s.jpg	0	0.0	0	193.536439888645	193.586420590989	0.0499807023443282	40071
40.171	50	267	0	0	saxophone	1368	267	0	stimuli\saxophone\saxophone_08s.jpg	7	-1	0	0	saxophone_08s.jpg	0	0.0	0	193.63644176581903	193.686424662825	0.0499828970059752	40171
40.271	50	268	0	0	leech	909	268	0	stimuli\leech\leech_01b.jpg	0	-1	0	0	leech_01b.jpg	0	0.0	0	193.73645095759997	193.786428246647	0.0499772890470922	40271
40.371	50	269	0	0	flask	612	269	0	stimuli\flask\flask_03s.jpg	2	-1	0	0	flask_03s.jpg	0	0.0	0	193.83644820237498	193.88643109938099	0.0499828970059752	40371
40.471	50	270	0	0	snowball	1480	270	0	stimuli\snowball\snowball_01b.jpg	0	-1	0	0	snowball_01b.jpg	0	0.0	0	193.936451786663	193.986432489008	0.0499807023443282	40471
40.571	50	271	0	0	matchbox	984	271	0	stimuli\matchbox\matchbox_07s.jpg	6	-1	0	0	matchbox_07s.jpg	0	0.0	0	194.03645439539102	194.08643485419498	0.0499804588034749	40571
40.671	50	272	0	0	sunglasses	1585	272	0	stimuli\sunglasses\sunglasses_05s.jpg	4	-1	0	0	sunglasses_05s.jpg	0	0.0	0	194.136456272565	194.18644136376702	0.04998509120196099	40671
40.771	50	273	0	0	football_helmet	630	273	0	stimuli\football_helmet\football_helmet_05s.jpg	4	-1	0	0	football_helmet_05s.jpg	0	0.0	0	194.236459856853	194.286443240941	0.0499833840876818	40771
40.871	50	274	0	0	star_fruit	1540	274	0	stimuli\star_fruit\star_fruit_12s.jpg	11	-1	0	0	star_fruit_12s.jpg	0	0.0	0	194.33646173402698	194.38644219283	0.0499804588034749	40871
40.971	50	275	0	0	squirrel	1529	275	0	stimuli\squirrel\squirrel_07s.jpg	6	-1	0	0	squirrel_07s.jpg	0	0.0	0	194.43646483030201	194.486445289105	0.0499804588034749	40971
41.071	50	276	0	0	pasta	1123	276	0	stimuli\pasta\pasta_09s.jpg	8	-1	0	0	pasta_09s.jpg	0	0.0	0	194.536467195489	194.586447410285	0.0499802147969604	41071
41.171	50	277	0	0	metronome	997	277	0	stimuli\metronome\metronome_10s.jpg	9	-1	0	0	metronome_10s.jpg	0	0.0	0	194.636471266858	194.686449531466	0.0499782646074891	41171
41.271	50	278	0	0	pastry	1124	278	0	stimuli\pastry\pastry_02s.jpg	1	-1	0	0	pastry_02s.jpg	0	0.0	0	194.73647411959203	194.786456285045	0.0499821654520929	41271
41.371	50	279	0	0	pug	1249	279	0	stimuli\pug\pug_02s.jpg	1	-1	0	0	pug_02s.jpg	0	0.0	0	194.836475753225	194.886457187124	0.0499814338982105	41371
41.471	50	280	0	0	kiwi	876	280	0	stimuli\kiwi\kiwi_11s.jpg	10	-1	0	0	kiwi_11s.jpg	0	0.0	0	194.93648031214298	194.98645808920298	0.0499777770601213	41471
41.571	50	281	0	0	snowman	1482	281	0	stimuli\snowman\snowman_07s.jpg	6	-1	0	0	snowman_07s.jpg	0	0.0	0	195.036480239127	195.086461185478	0.0499809463508427	41571
41.671	50	282	0	0	unicycle	1746	282	0	stimuli\unicycle\unicycle_06s.jpg	5	-1	0	0	unicycle_06s.jpg	0	0.0	0	195.13648504205003	195.18646355019902	0.0499785081483424	41671
41.771	50	283	0	0	noisemaker	1060	283	0	stimuli\noisemaker\noisemaker_12s.jpg	11	-1	0	0	noisemaker_12s.jpg	0	0.0	0	195.236484969035	195.286468353588	0.0499833845533431	41771
41.871	50	284	0	0	wheelbarrow	1807	284	0	stimuli\wheelbarrow\wheelbarrow_07s.jpg	6	-1	0	0	wheelbarrow_07s.jpg	0	0.0	0	195.336488309316	195.386469499208	0.049981189891696	41871
41.971	50	285	0	0	velcro	1756	285	0	stimuli\velcro\velcro_10s.jpg	9	-1	0	0	velcro_10s.jpg	0	0.0	0	195.436492624693	195.486474058591	0.0499814338982105	41971
42.071	50	286	0	0	cream_cheese	437	286	0	stimuli\cream_cheese\cream_cheese_08s.jpg	7	-1	0	0	cream_cheese_08s.jpg	0	0.0	0	195.536493770778	195.586476179771	0.0499824089929461	42071
42.171	50	287	0	0	puppet	1257	287	0	stimuli\puppet\puppet_10s.jpg	9	-1	0	0	puppet_10s.jpg	0	0.0	0	195.63649686705298	195.686479032505	0.0499821654520929	42171
42.271	50	288	0	0	tongue	1675	288	0	stimuli\tongue\tongue_02s.jpg	1	-1	0	0	tongue_02s.jpg	0	0.0	0	195.736499475781	195.786483103875	0.0499836280941963	42271
42.371	50	289	0	0	rice	1309	289	0	stimuli\rice\rice_03s.jpg	2	-1	0	0	rice_03s.jpg	1	0.0	0	195.83650281606202	195.886482299305	0.04997948324307799	42371
42.471	50	290	0	0	soap	1487	290	0	stimuli\soap\soap_01b.jpg	0	-1	0	0	soap_01b.jpg	0	0.0	0	195.936506155878	195.986487346236	0.0499811903573573	42471
42.571	50	291	0	0	turkey	1733	291	0	stimuli\turkey\turkey_11s.jpg	10	-1	0	0	turkey_11s.jpg	0	0.0	0	196.03650681441601	196.08648971095698	0.04998289654031401	42571
42.671	50	292	0	0	prism	1241	292	0	stimuli\prism\prism_05s.jpg	4	-1	0	0	prism_05s.jpg	0	0.0	0	196.13651161733998	196.186491101049	0.0499794837087393	42671
42.771	50	293	0	0	squash	1526	293	0	stimuli\squash\squash_10s.jpg	9	-1	0	0	squash_10s.jpg	0	0.0	0	196.236512519419	196.28649882972198	0.0499863103032112	42771
42.871	50	294	0	0	backscratcher	50	294	0	stimuli\backscratcher\backscratcher_05s.jpg	4	-1	0	0	backscratcher_05s.jpg	0	0.0	0	196.336519272998	196.386495342944	0.049976069945842	42871
42.971	50	295	0	0	roll	1323	295	0	stimuli\roll\roll_12s.jpg	11	-1	0	1	roll_12s.jpg	0	0.0	0	196.436517980881	196.486501121428	0.0499831405468285	42971
43.071	50	296	0	0	bungee	221	296	0	stimuli\bungee\bungee_06s.jpg	5	-1	0	0	bungee_06s.jpg	0	0.0	0	196.536520833615	196.586502755061	0.0499819214455783	43071
43.171	50	297	0	0	rhinoceros	1306	297	0	stimuli\rhinoceros\rhinoceros_08s.jpg	7	-1	0	0	rhinoceros_08s.jpg	0	0.0	0	196.636524417438	196.686504632235	0.0499802147969604	43171
43.271	50	298	0	0	telescope	1640	298	0	stimuli\telescope\telescope_12s.jpg	11	-1	0	0	telescope_12s.jpg	0	0.0	0	196.736527757719	196.786508216057	0.0499804583378136	43271
43.371	50	299	0	0	bowtie	180	299	0	stimuli\bowtie\bowtie_09s.jpg	8	-1	0	0	bowtie_09s.jpg	0	0.0	0	196.836531341542	196.886511068791	0.0499797272495925	43371
43.471	50	300	0	0	router	1336	300	0	stimuli\router\router_03s.jpg	2	-1	0	0	router_03s.jpg	0	0.0	0	196.936531512067	196.98651245841802	0.0499809463508427	43471
43.571	50	301	0	0	dart	473	301	0	stimuli\dart\dart_12s.jpg	11	-1	0	0	dart_12s.jpg	0	0.0	0	197.036536803003	197.0865170178	0.0499802147969604	43571
43.671	50	302	0	0	toast	1665	302	0	stimuli\toast\toast_07s.jpg	6	-1	0	0	toast_07s.jpg	0	0.0	0	197.13653794862302	197.186517432332	0.0499794837087393	43671
43.771	50	303	0	0	coop	404	303	0	stimuli\coop\coop_01b.jpg	0	-1	0	0	coop_01b.jpg	0	0.0	0	197.236541288905	197.286521991715	0.0499807028099895	43771
43.871	50	304	0	0	pulley	1250	304	0	stimuli\pulley\pulley_01b.jpg	0	-1	0	0	pulley_01b.jpg	0	0.0	0	197.336544141639	197.38652338134102	0.0499792397022247	43871
43.971	50	305	0	0	sombrero	1495	305	0	stimuli\sombrero\sombrero_11s.jpg	10	-1	0	0	sombrero_11s.jpg	0	0.0	0	197.436544556171	197.48652720917	0.0499826529994607	43971
44.071	50	306	0	0	net	1057	306	0	stimuli\net\net_10s.jpg	9	-1	0	0	net_10s.jpg	0	0.0	0	197.536550578196	197.586527867243	0.0499772890470922	44071
44.171	50	307	0	0	bike	123	307	0	stimuli\bike\bike_06s.jpg	5	-1	0	0	bike_06s.jpg	0	0.0	0	197.63655050518003	197.68653193907798	0.0499814338982105	44171
44.271	50	308	0	0	dryer	524	308	0	stimuli\dryer\dryer_10s.jpg	9	-1	0	0	dryer_10s.jpg	0	0.0	0	197.736552869901	197.786539667752	0.049986797850579	44271
57.038	50	309	0	0	cilantro	347	0	1	stimuli\cilantro\cilantro_04s.jpg	3	-1	1	0	cilantro_04s.jpg	0	0.0	0	210.503592898604	210.553573356941	0.0499804583378136	57038
57.138	50	310	0	0	memory_stick	995	1	1	stimuli\memory_stick\memory_stick_03s.jpg	2	-1	1	0	memory_stick_03s.jpg	0	0.0	0	210.60359136248002	210.653566700872	0.0499753383919597	57138
57.238	50	311	0	0	loom	946	2	1	stimuli\loom\loom_05s.jpg	4	-1	1	0	loom_05s.jpg	0	0.0	0	210.70359640941	210.75357443001099	0.0499780206009746	57238
57.338	50	312	0	0	jump_rope	858	3	1	stimuli\jump_rope\jump_rope_08s.jpg	7	-1	1	0	jump_rope_08s.jpg	0	0.0	0	210.803593166638	210.853578013834	0.0499848471954465	57338
57.438	50	313	0	0	water_fountain	1790	4	1	stimuli\water_fountain\water_fountain_03s.jpg	2	-1	1	0	water_fountain_03s.jpg	0	0.0	0	210.903579196427	210.95357940346	0.0500002070330083	57438
57.538	50	314	0	0	birdhouse	131	5	1	stimuli\birdhouse\birdhouse_06s.jpg	5	-1	1	0	birdhouse_06s.jpg	1	0.0	0	211.003600334749	211.05358518194402	0.0499848471954465	57538
57.638	50	315	0	0	granite	700	6	1	stimuli\granite\granite_07s.jpg	6	-1	1	0	granite_07s.jpg	0	0.0	0	211.103607087862	211.153592179064	0.04998509120196099	57638
57.738	50	316	0	0	tie	1658	7	1	stimuli\tie\tie_10s.jpg	9	-1	1	0	tie_10s.jpg	0	0.0	0	211.20360482064999	211.25358747365001	0.0499826529994607	57738
57.838	50	317	0	0	leaf	906	8	1	stimuli\leaf\leaf_01b.jpg	0	-1	1	0	leaf_01b.jpg	0	0.0	0	211.30360889248502	211.353591057472	0.0499821649864316	57838
57.938	50	318	0	0	ship	1421	9	1	stimuli\ship\ship_12s.jpg	11	-1	1	0	ship_12s.jpg	0	0.0	0	211.403611501213	211.453597079497	0.0499855782836676	57938
58.038	50	319	0	0	egg	546	10	1	stimuli\egg\egg_06s.jpg	5	-1	1	0	egg_06s.jpg	0	0.0	0	211.50361752323798	211.55359700648103	0.04997948324307799	58038
58.138	50	320	0	0	mosquito_net	1021	11	1	stimuli\mosquito_net\mosquito_net_01b.jpg	0	-1	1	0	mosquito_net_01b.jpg	0	0.0	0	211.603619156871	211.653604247607	0.0499850907362998	58138
58.238	50	321	0	0	catapult	285	12	1	stimuli\catapult\catapult_08s.jpg	7	-1	1	0	catapult_08s.jpg	0	0.0	0	211.703618352301	211.753600273747	0.0499819214455783	58238
58.338	50	322	0	0	cable	234	13	1	stimuli\cable\cable_03s.jpg	2	-1	1	0	cable_03s.jpg	0	0.0	0	211.80362144857602	211.853602882475	0.0499814338982105	58338
58.438	50	323	0	0	garlic	658	14	1	stimuli\garlic\garlic_03s.jpg	2	-1	1	0	garlic_03s.jpg	0	0.0	0	211.903622106649	211.953605247196	0.0499831405468285	58438
58.538	50	324	0	0	tweezers	1739	15	1	stimuli\tweezers\tweezers_03s.jpg	2	-1	1	0	tweezers_03s.jpg	0	0.0	0	212.00362764112703	212.053592983633	0.0499653425067663	58538
58.638	50	325	0	0	glue	681	16	1	stimuli\glue\glue_05s.jpg	4	-1	1	0	glue_05s.jpg	0	0.0	0	212.103628299665	212.153617535252	0.0499892355874181	58638
58.738	50	326	0	0	handkerchief	747	17	1	stimuli\handkerchief\handkerchief_09s.jpg	8	-1	1	0	handkerchief_09s.jpg	0	0.0	0	212.20363237103402	212.25361648714198	0.0499841161072254	58738
58.838	50	327	0	0	brussels_sprouts	206	18	1	stimuli\brussels_sprouts\brussels_sprouts_07s.jpg	6	-1	1	0	brussels_sprouts_07s.jpg	0	0.0	0	212.303639124613	212.353615926113	0.0499768014997244	58838
58.938	50	328	0	0	hook1	793	19	1	stimuli\hook1\hook1_05s.jpg	4	-1	1	0	hook1_05s.jpg	0	0.0	0	212.403638076503	212.45361829130002	0.0499802147969604	58938
59.038	50	329	0	0	yak	1845	20	1	stimuli\yak\yak_10s.jpg	9	-1	1	0	yak_10s.jpg	0	0.0	0	212.503641172778	212.553620900027	0.0499797272495925	59038
59.138	50	330	0	0	lens	916	21	1	stimuli\lens\lens_09s.jpg	8	-1	1	0	lens_09s.jpg	0	0.0	0	212.6036447566	212.653623508755	0.0499787521548569	59138
59.238	50	331	0	0	gearshift	668	22	1	stimuli\gearshift\gearshift_05s.jpg	4	-1	1	0	gearshift_05s.jpg	0	0.0	0	212.70364736532798	212.753631481435	0.0499841161072254	59238
59.338	50	332	0	0	fork	634	23	1	stimuli\fork\fork_03s.jpg	2	-1	1	0	fork_03s.jpg	0	0.0	0	212.803649242967	212.853631164413	0.0499819214455783	59338
59.438	50	333	0	0	crane	431	24	1	stimuli\crane\crane_10s.jpg	9	-1	1	0	crane_10s.jpg	0	0.0	0	212.90364965703301	212.95363401668098	0.0499843596480787	59438
59.538	50	334	0	0	tablecloth	1609	25	1	stimuli\tablecloth\tablecloth_12s.jpg	11	-1	1	0	tablecloth_12s.jpg	0	0.0	0	213.003656167071	213.053634918761	0.0499787516891956	59538
59.638	50	335	0	0	luggage	948	26	1	stimuli\luggage\luggage_04s.jpg	3	-1	1	0	luggage_04s.jpg	0	0.0	0	213.103658044245	213.15363923460202	0.0499811903573573	59638
59.739	50	336	0	0	cockroach	373	27	1	stimuli\cockroach\cockroach_04n.jpg	3	-1	1	0	cockroach_04n.jpg	0	0.0	0	213.20367503771598	213.253643549979	0.049968512263149	59739
59.839	50	337	0	0	headphones	766	28	1	stimuli\headphones\headphones_09s.jpg	8	-1	1	0	headphones_09s.jpg	0	0.0	0	213.30366667499803	213.35364298895	0.0499763139523566	59839
59.939	50	338	0	0	floss	617	29	1	stimuli\floss\floss_08s.jpg	7	-1	1	0	floss_08s.jpg	0	0.0	0	213.403668796178	213.453646329232	0.0499775330536067	59939
60.039	50	339	0	0	lamb	889	30	1	stimuli\lamb\lamb_06s.jpg	5	-1	1	0	lamb_06s.jpg	1	0.0	0	213.503665553406	213.55365040106702	0.0499848476611078	60039
60.139	50	340	0	0	dishwasher	491	31	1	stimuli\dishwasher\dishwasher_02s.jpg	1	-1	1	0	dishwasher_02s.jpg	0	0.0	0	213.60366986924802	213.653654716443	0.0499848471954465	60139
60.239	50	341	0	0	polisher	1215	32	1	stimuli\polisher\polisher_03s.jpg	2	-1	1	0	polisher_03s.jpg	0	0.0	0	213.70367540372501	213.753654155415	0.0499787516891956	60239
60.339	50	342	0	0	fishbowl	601	33	1	stimuli\fishbowl\fishbowl_03s.jpg	2	-1	1	0	fishbowl_03s.jpg	0	0.0	0	213.803674111143	213.85365822724998	0.0499841161072254	60339
60.439	50	343	0	0	orange_rind	1079	34	1	stimuli\orange_rind\orange_rind_01b.jpg	0	-1	1	0	orange_rind_01b.jpg	0	0.0	0	213.903682083823	213.95365937287	0.0499772890470922	60439
60.539	50	344	0	0	revolving_door	1305	35	1	stimuli\revolving_door\revolving_door_01b.jpg	0	-1	1	0	revolving_door_01b.jpg	0	0.0	0	214.003678841051	214.053663200699	0.0499843596480787	60539
60.639	50	345	0	0	beachball	99	36	1	stimuli\beachball\beachball_10s.jpg	9	-1	1	0	beachball_10s.jpg	0	0.0	0	214.103684131987	214.153665565886	0.0499814338982105	60639
60.739	50	346	0	0	cobra	371	37	1	stimuli\cobra\cobra_12s.jpg	11	-1	1	0	cobra_12s.jpg	0	0.0	0	214.203685521614	214.25366695551202	0.0499814338982105	60739
60.839	50	347	0	0	flute	620	38	1	stimuli\flute\flute_01b.jpg	0	-1	1	0	flute_01b.jpg	0	0.0	0	214.303693981841	214.353672002442	0.0499780206009746	60839
60.939	50	348	0	0	car	267	39	1	stimuli\car\car_08s.jpg	7	-1	1	0	car_08s.jpg	0	0.0	0	214.403694396373	214.45367436716302	0.0499799707904458	60939
61.039	50	349	0	0	chest1	319	40	1	stimuli\chest1\chest1_07s.jpg	6	-1	1	0	chest1_07s.jpg	0	0.0	0	214.50369627354698	214.553672831506	0.0499765579588711	61039
61.139	50	350	0	0	strap	1567	41	1	stimuli\strap\strap_09s.jpg	8	-1	1	0	strap_09s.jpg	0	0.0	0	214.60369815072	214.653679097071	0.0499809463508427	61139
61.239	50	351	0	0	caterpillar	286	42	1	stimuli\caterpillar\caterpillar_11s.jpg	10	-1	1	0	caterpillar_11s.jpg	0	0.0	0	214.703723433893	214.75367902405603	0.0499555901624262	61239
61.339	50	352	0	0	clove	365	43	1	stimuli\clove\clove_05s.jpg	4	-1	1	0	clove_05s.jpg	0	0.0	0	214.803703856189	214.853682607878	0.0499787516891956	61339
61.439	50	353	0	0	shaker	1408	44	1	stimuli\shaker\shaker_11s.jpg	10	-1	1	0	shaker_11s.jpg	0	0.0	0	214.90370890311902	214.95368984900398	0.0499809458851814	61439
61.539	50	354	0	0	riser	1314	45	1	stimuli\riser\riser_08s.jpg	7	-1	1	0	riser_08s.jpg	0	0.0	0	215.003706391901	215.053687094245	0.0499807023443282	61539
61.639	50	355	0	0	pocket	1205	46	1	stimuli\pocket\pocket_07s.jpg	6	-1	1	0	pocket_07s.jpg	0	0.0	0	215.10371021973	215.153692384716	0.0499821649864316	61639
61.739	50	356	0	0	mullet	1039	47	1	stimuli\mullet\mullet_08s.jpg	7	-1	1	0	mullet_08s.jpg	0	0.0	0	215.203716729302	215.253696944099	0.0499802147969604	61739
61.839	50	357	0	0	slingshot	1467	48	1	stimuli\slingshot\slingshot_04s.jpg	3	-1	1	0	slingshot_04s.jpg	0	0.0	0	215.303717874922	215.35370004037398	0.0499821654520929	61839
61.939	50	358	0	0	skirt	1457	49	1	stimuli\skirt\skirt_10s.jpg	9	-1	1	0	skirt_10s.jpg	0	0.0	0	215.40372145921	215.453700698912	0.0499792397022247	61939
62.039	50	359	0	0	column	388	50	1	stimuli\column\column_06s.jpg	5	-1	1	0	column_06s.jpg	0	0.0	0	215.503721142188	215.553701600991	0.0499804588034749	62039
62.139	50	360	0	0	tamale	1618	51	1	stimuli\tamale\tamale_04n.jpg	3	-1	1	0	tamale_04n.jpg	0	0.0	0	215.60372521402303	215.653705916367	0.0499807023443282	62139
62.239	50	361	0	0	moth	1023	52	1	stimuli\moth\moth_02n.jpg	1	-1	1	0	moth_02n.jpg	0	0.0	0	215.703727578744	215.753708037548	0.0499804588034749	62239
62.339	50	362	0	0	hookah	795	53	1	stimuli\hookah\hookah_01b.jpg	0	-1	1	0	hookah_01b.jpg	0	0.0	0	215.80372994393102	215.853720154613	0.0499902106821537	62339
62.439	50	363	0	0	outfit	1087	54	1	stimuli\outfit\outfit_10s.jpg	9	-1	1	0	outfit_10s.jpg	0	0.0	0	215.903738891706	215.95371252344898	0.0499736317433417	62439
62.539	50	364	0	0	coffee_table	381	55	1	stimuli\coffee_table\coffee_table_08s.jpg	7	-1	1	0	coffee_table_08s.jpg	0	0.0	0	216.003733942285	216.05371391307597	0.0499799707904458	62539
62.639	50	365	0	0	drink	521	56	1	stimuli\drink\drink_02s.jpg	1	-1	1	0	drink_02s.jpg	0	0.0	0	216.103740451857	216.153720423114	0.0499799712561071	62639
62.739	50	366	0	0	bulletin_board	217	57	1	stimuli\bulletin_board\bulletin_board_04s.jpg	3	-1	1	0	bulletin_board_04s.jpg	0	0.0	0	216.203739403281	216.253720837645	0.0499814343638718	62739
62.839	50	367	0	0	needle	1055	58	1	stimuli\needle\needle_06s.jpg	5	-1	1	0	needle_06s.jpg	0	0.0	0	216.30374420667098	216.353724177461	0.0499799707904458	62839
62.939	50	368	0	0	hammock	742	59	1	stimuli\hammock\hammock_05s.jpg	4	-1	1	0	hammock_05s.jpg	1	0.0	0	216.403748522047	216.45372946839802	0.0499809463508427	62939
63.039	50	369	0	0	cardigan	273	60	1	stimuli\cardigan\cardigan_10s.jpg	9	-1	1	0	cardigan_10s.jpg	0	0.0	0	216.503751130775	216.553732077125	0.0499809463508427	63039
63.139	50	370	0	0	water_heater	1791	61	1	stimuli\water_heater\water_heater_05s.jpg	4	-1	1	0	water_heater_05s.jpg	0	0.0	0	216.60376178519797	216.653731516097	0.0499697308987379	63139
63.239	50	371	0	0	lamppost	892	62	1	stimuli\lamppost\lamppost_12s.jpg	11	-1	1	0	lamppost_12s.jpg	0	0.0	0	216.70375366648702	216.75373436883098	0.0499807023443282	63239
63.339	50	372	0	0	footbath	631	63	1	stimuli\footbath\footbath_08s.jpg	7	-1	1	0	footbath_08s.jpg	0	0.0	0	216.803761151154	216.85373819666	0.0499770455062389	63339
63.439	50	373	0	0	ticktacktoe	1657	64	1	stimuli\ticktacktoe\ticktacktoe_05s.jpg	4	-1	1	0	ticktacktoe_05s.jpg	0	0.0	0	216.903759127483	216.95374251203603	0.0499833845533431	63439
63.539	50	374	0	0	soccer_ball	1488	65	1	stimuli\soccer_ball\soccer_ball_05s.jpg	4	-1	1	0	soccer_ball_05s.jpg	0	0.0	0	217.003764905967	217.053749021608	0.0499841156415641	63539
63.639	50	375	0	0	breadbox	195	66	1	stimuli\breadbox\breadbox_10s.jpg	9	-1	1	0	breadbox_10s.jpg	0	0.0	0	217.10376727115397	217.153745535295	0.0499782641418278	63639
63.739	50	376	0	0	stopwatch	1562	67	1	stimuli\stopwatch\stopwatch_11s.jpg	10	-1	1	0	stopwatch_11s.jpg	0	0.0	0	217.20376866077999	217.253750094678	0.0499814338982105	63739
63.839	50	377	0	0	pie	1168	68	1	stimuli\pie\pie_12s.jpg	11	-1	1	0	pie_12s.jpg	0	0.0	0	217.303770050406	217.35374758346	0.0499775330536067	63839
63.939	50	378	0	0	shell3	1419	69	1	stimuli\shell3\shell3_06s.jpg	5	-1	1	0	shell3_06s.jpg	0	0.0	0	217.40377119649202	217.453755555674	0.0499843591824174	63939
64.039	50	379	0	0	strawberry	1570	70	1	stimuli\strawberry\strawberry_02n.jpg	1	-1	1	0	strawberry_02n.jpg	1	0.0	0	217.50377697451	217.553755726665	0.0499787521548569	64039
64.139	50	380	0	0	hotdog	805	71	1	stimuli\hotdog\hotdog_08n.jpg	7	-1	1	0	hotdog_08n.jpg	0	0.0	0	217.60377787658902	217.65375882293998	0.0499809463508427	64139
64.239	50	381	0	0	bear	105	72	1	stimuli\bear\bear_11s.jpg	10	-1	1	0	bear_11s.jpg	0	0.0	0	217.703780729324	217.753762163222	0.0499814338982105	64239
64.339	50	382	0	0	tape	1622	73	1	stimuli\tape\tape_09s.jpg	8	-1	1	0	tape_09s.jpg	0	0.0	0	217.80378577625402	217.85376282129397	0.0499770450405777	64339
64.439	50	383	0	0	tadpole	1614	74	1	stimuli\tadpole\tadpole_11s.jpg	10	-1	1	0	tadpole_11s.jpg	0	0.0	0	217.903786921874	217.953768355772	0.0499814338982105	64439
64.539	50	384	0	0	laser_pointer	899	75	1	stimuli\laser_pointer\laser_pointer_03s.jpg	2	-1	1	0	laser_pointer_03s.jpg	1	0.0	0	218.00379318790502	218.05377194006002	0.0499787521548569	64539
64.639	50	385	0	0	rearview_mirror	1293	76	1	stimuli\rearview_mirror\rearview_mirror_08s.jpg	7	-1	1	0	rearview_mirror_08s.jpg	0	0.0	0	218.103790920228	218.153772354592	0.0499814343638718	64639
64.739	50	386	0	0	lock	940	77	1	stimuli\lock\lock_02s.jpg	1	-1	1	0	lock_02s.jpg	0	0.0	0	218.20380059955602	218.25377496331902	0.0499743637628853	64739
64.839	50	387	0	0	pepper2	1150	78	1	stimuli\pepper2\pepper2_08s.jpg	7	-1	1	0	pepper2_08s.jpg	0	0.0	0	218.303799063899	218.353777815588	0.0499787516891956	64839
64.939	50	388	0	0	manatee	964	79	1	stimuli\manatee\manatee_11s.jpg	10	-1	1	0	manatee_11s.jpg	0	0.0	0	218.403802403715	218.453780424315	0.0499780206009746	64939
65.039	50	389	0	0	papaya	1111	80	1	stimuli\papaya\papaya_05s.jpg	4	-1	1	0	papaya_05s.jpg	0	0.0	0	218.50380062405	218.55378620279998	0.0499855787493289	65039
65.139	50	390	0	0	rollerskate	1327	81	1	stimuli\rollerskate\rollerskate_02s.jpg	1	-1	1	0	rollerskate_02s.jpg	0	0.0	0	218.603803964332	218.653787348419	0.0499833840876818	65139
65.239	50	391	0	0	bulletproof_vest	218	82	1	stimuli\bulletproof_vest\bulletproof_vest_05s.jpg	4	-1	1	0	bulletproof_vest_05s.jpg	1	0.0	0	218.70381071791098	218.75378898205201	0.0499782641418278	65239
65.339	50	392	0	0	amber	18	83	1	stimuli\amber\amber_11s.jpg	10	-1	1	0	amber_11s.jpg	0	0.0	0	218.803811132442	218.853791103233	0.0499799707904458	65339
65.439	50	393	0	0	scoreboard	1383	84	1	stimuli\scoreboard\scoreboard_04s.jpg	3	-1	1	0	scoreboard_04s.jpg	0	0.0	0	218.90381593536597	218.953792249318	0.0499763139523566	65439
65.539	50	394	0	0	metal_detector	996	85	1	stimuli\metal_detector\metal_detector_09s.jpg	8	-1	1	0	metal_detector_09s.jpg	0	0.0	0	219.003816105891	219.05379583314098	0.0499797272495925	65539
65.639	50	395	0	0	switch	1600	86	1	stimuli\switch\switch_05s.jpg	4	-1	1	0	switch_05s.jpg	0	0.0	0	219.103822127916	219.153799417429	0.0499772895127535	65639
65.739	50	396	0	0	bok_choy	156	87	1	stimuli\bok_choy\bok_choy_09s.jpg	8	-1	1	0	bok_choy_09s.jpg	0	0.0	0	219.203822542448	219.25380373280498	0.0499811903573573	65739
65.839	50	397	0	0	finger	588	88	1	stimuli\finger\finger_08s.jpg	7	-1	1	0	finger_08s.jpg	1	0.0	0	219.303823200986	219.353804878425	0.0499816774390638	65839
65.939	50	398	0	0	bun	220	89	1	stimuli\bun\bun_09s.jpg	8	-1	1	0	bun_09s.jpg	0	0.0	0	219.40382751636199	219.45380748715303	0.0499799707904458	65939
66.039	50	399	0	0	sausage	1365	90	1	stimuli\sausage\sausage_03s.jpg	2	-1	1	0	sausage_03s.jpg	0	0.0	0	219.503831831738	219.55381302163002	0.049981189891696	66039
66.139	50	400	0	0	cotton_candy	421	91	1	stimuli\cotton_candy\cotton_candy_06s.jpg	5	-1	1	0	cotton_candy_06s.jpg	0	0.0	0	219.60383517201998	219.653816118371	0.0499809463508427	66139
66.239	50	401	0	0	leopard	917	92	1	stimuli\leopard\leopard_09s.jpg	8	-1	1	0	leopard_09s.jpg	0	0.0	0	219.703835586552	219.753815069795	0.04997948324307799	66239
66.339	50	402	0	0	shoulder	1431	93	1	stimuli\shoulder\shoulder_08s.jpg	7	-1	1	0	shoulder_08s.jpg	0	0.0	0	219.80383697617802	219.853817190975	0.0499802147969604	66339
66.439	50	403	0	0	bowling_ball	179	94	1	stimuli\bowling_ball\bowling_ball_10s.jpg	9	-1	1	0	bowling_ball_10s.jpg	0	0.0	0	219.90384153509498	219.953821750358	0.0499802152626216	66439
66.539	50	404	0	0	seafood	1394	95	1	stimuli\seafood\seafood_12s.jpg	11	-1	1	0	seafood_12s.jpg	0	0.0	0	220.00384706957297	220.053824602626	0.0499775330536067	66539
66.639	50	405	0	0	scooter	1382	96	1	stimuli\scooter\scooter_01b.jpg	0	-1	1	0	scooter_01b.jpg	0	0.0	0	220.10384285170602	220.15382721135398	0.0499843596480787	66639
66.739	50	406	0	0	paper_bag	1113	97	1	stimuli\paper_bag\paper_bag_03s.jpg	2	-1	1	0	paper_bag_03s.jpg	0	0.0	0	220.203850336839	220.253828844987	0.0499785081483424	66739
66.839	50	407	0	0	kimono	873	98	1	stimuli\kimono\kimono_12s.jpg	11	-1	1	0	kimono_12s.jpg	0	0.0	0	220.30384904472197	220.35383096616698	0.0499819214455783	66839
66.939	50	408	0	0	mast	981	99	1	stimuli\mast\mast_12s.jpg	11	-1	1	0	mast_12s.jpg	0	0.0	0	220.403854579199	220.453832355794	0.049977776594460004	66939
67.039	50	409	0	0	chalice	301	100	1	stimuli\chalice\chalice_07s.jpg	6	-1	1	0	chalice_07s.jpg	0	0.0	0	220.50386011367698	220.55383520852797	0.0499750948511064	67039
67.139	50	410	0	0	sock	1489	101	1	stimuli\sock\sock_02s.jpg	1	-1	1	0	sock_02s.jpg	0	0.0	0	220.603869304992	220.653838304803	0.0499689998105168	67139
67.239	50	411	0	0	hairbrush	734	102	1	stimuli\hairbrush\hairbrush_05s.jpg	4	-1	1	0	hairbrush_05s.jpg	0	0.0	0	220.703866550233	220.75384262017897	0.049976069945842	67239
67.339	50	412	0	0	aloe	14	103	1	stimuli\aloe\aloe_09s.jpg	8	-1	1	0	aloe_09s.jpg	0	0.0	0	220.803866964765	220.853846448008	0.04997948324307799	67339
67.439	50	413	0	0	boomerang	168	104	1	stimuli\boomerang\boomerang_12s.jpg	11	-1	1	0	boomerang_12s.jpg	0	0.0	0	220.90386859793202	220.953849544283	0.0499809463508427	67439
67.539	50	414	0	0	easel	542	105	1	stimuli\easel\easel_02s.jpg	1	-1	1	0	easel_02s.jpg	0	0.0	0	221.00387023156503	221.05385190947	0.0499816779047251	67539
67.639	50	415	0	0	glass	677	106	1	stimuli\glass\glass_11s.jpg	10	-1	1	0	glass_11s.jpg	0	0.0	0	221.103873571847	221.153854518197	0.0499809463508427	67639
67.739	50	416	0	0	bat1	87	107	1	stimuli\bat1\bat1_06s.jpg	5	-1	1	0	bat1_06s.jpg	0	0.0	0	221.203880569432	221.25385810202005	0.0499775325879455	67739
67.839	50	417	0	0	box	181	108	1	stimuli\box\box_07s.jpg	6	-1	1	0	box_07s.jpg	0	0.0	0	221.303877082653	221.3538602232	0.0499831405468285	67839
67.939	50	418	0	0	peg	1139	109	1	stimuli\peg\peg_04s.jpg	3	-1	1	0	peg_04s.jpg	0	0.0	0	221.40388139802997	221.45385917509	0.0499777770601213	67939
68.039	50	419	0	0	squirt_gun	1530	110	1	stimuli\squirt_gun\squirt_gun_05s.jpg	4	-1	1	0	squirt_gun_05s.jpg	0	0.0	0	221.503882056568	221.553864953108	0.04998289654031401	68039
68.139	50	420	0	0	coffee_filter	379	111	1	stimuli\coffee_filter\coffee_filter_05s.jpg	4	-1	1	0	coffee_filter_05s.jpg	0	0.0	0	221.60388564039	221.653871706687	0.0499860662966967	68139
68.239	50	421	0	0	baby	46	112	1	stimuli\baby\baby_08s.jpg	7	-1	1	0	baby_08s.jpg	1	0.0	0	221.703889712226	221.753871877212	0.0499821649864316	68239
68.339	50	422	0	0	rattle	1287	113	1	stimuli\rattle\rattle_05s.jpg	4	-1	1	0	rattle_05s.jpg	0	0.0	0	221.80388061795398	221.853867171798	0.0499865538440645	68339
68.439	50	423	0	0	gutter	729	114	1	stimuli\gutter\gutter_07s.jpg	6	-1	1	0	gutter_07s.jpg	0	0.0	0	221.90388785907996	221.953867342323	0.04997948324307799	68439
68.539	50	424	0	0	costume	419	115	1	stimuli\costume\costume_03s.jpg	2	-1	1	0	costume_03s.jpg	0	0.0	0	222.003889005166	222.05386605020598	0.0499770450405777	68539
68.639	50	425	0	0	gavel	665	116	1	stimuli\gavel\gavel_03s.jpg	2	-1	1	0	gavel_03s.jpg	0	0.0	0	222.10387722915002	222.153872072231	0.0499948430806398	68639
68.739	50	426	0	0	can_opener	251	117	1	stimuli\can_opener\can_opener_12s.jpg	11	-1	1	0	can_opener_12s.jpg	0	0.0	0	222.203890565317	222.25387224322202	0.0499816779047251	68739
68.839	50	427	0	0	jetski	848	118	1	stimuli\jetski\jetski_07s.jpg	6	-1	1	0	jetski_07s.jpg	0	0.0	0	222.303893418051	222.353873632848	0.0499802147969604	68839
68.939	50	428	0	0	macadamia	951	119	1	stimuli\macadamia\macadamia_07s.jpg	6	-1	1	0	macadamia_07s.jpg	0	0.0	0	222.40389675833302	222.453875997569	0.0499792392365634	68939
69.039	50	429	0	0	bench	120	120	1	stimuli\bench\bench_01b.jpg	0	-1	1	0	bench_01b.jpg	0	0.0	0	222.503900342155	222.55388006940498	0.0499797272495925	69039
69.139	50	430	0	0	anklet	23	121	1	stimuli\anklet\anklet_08s.jpg	7	-1	1	0	anklet_08s.jpg	0	0.0	0	222.603901244234	222.653881459031	0.0499802147969604	69139
69.239	50	431	0	0	reel	1299	122	1	stimuli\reel\reel_02s.jpg	1	-1	1	0	reel_02s.jpg	0	0.0	0	222.70390360942102	222.75388431176498	0.0499807023443282	69239
69.339	50	432	0	0	bottle	170	123	1	stimuli\bottle\bottle_02n.jpg	1	-1	1	0	bottle_02n.jpg	0	0.0	0	222.803906949237	222.853887652047	0.0499807028099895	69339
69.439	50	433	0	0	crown	448	124	1	stimuli\crown\crown_01b.jpg	0	-1	1	0	crown_01b.jpg	0	0.0	0	222.90391199616698	222.95389074832198	0.0499787521548569	69439
69.539	50	434	0	0	buggy	213	125	1	stimuli\buggy\buggy_05s.jpg	4	-1	1	0	buggy_05s.jpg	0	0.0	0	223.003912166692	223.053894088604	0.0499819219112396	69539
69.639	50	435	0	0	tarp	1628	126	1	stimuli\tarp\tarp_03s.jpg	2	-1	1	0	tarp_03s.jpg	0	0.0	0	223.103914531879	223.153894503135	0.0499799712561071	69639
69.739	50	436	0	0	strainer	1566	127	1	stimuli\strainer\strainer_02s.jpg	1	-1	1	0	strainer_02s.jpg	0	0.0	0	223.203920797911	223.253898086958	0.0499772890470922	69739
69.839	50	437	0	0	crate	433	128	1	stimuli\crate\crate_11s.jpg	10	-1	1	0	crate_11s.jpg	0	0.0	0	223.30392194352996	223.35390362143502	0.0499816779047251	69839
69.939	50	438	0	0	dollhouse	500	129	1	stimuli\dollhouse\dollhouse_05s.jpg	4	-1	1	0	dollhouse_05s.jpg	0	0.0	0	223.403922602069	223.453891113866	0.0499685117974877	69939
70.039	50	439	0	0	shredder	1437	130	1	stimuli\shredder\shredder_10s.jpg	9	-1	1	0	shredder_10s.jpg	0	0.0	0	223.503933988046	223.55390761978902	0.0499736317433417	70039
70.139	50	440	0	0	humvee	813	131	1	stimuli\humvee\humvee_12s.jpg	11	-1	1	0	humvee_12s.jpg	0	0.0	0	223.60392879461898	223.65390852186798	0.0499797272495925	70139
70.239	50	441	0	0	baseball_glove	80	132	1	stimuli\baseball_glove\baseball_glove_03s.jpg	2	-1	1	0	baseball_glove_03s.jpg	0	0.0	0	223.703931890894	223.75391186215	0.0499799712561071	70239
70.339	50	442	0	0	bush	227	133	1	stimuli\bush\bush_05s.jpg	4	-1	1	0	bush_05s.jpg	0	0.0	0	223.80393401207402	223.853916421533	0.0499824094586074	70339
70.439	50	443	0	0	broom	203	134	1	stimuli\broom\broom_04s.jpg	3	-1	1	0	broom_04s.jpg	0	0.0	0	223.903940034565	223.95391903026	0.0499789956957102	70439
70.539	50	444	0	0	flypaper	622	135	1	stimuli\flypaper\flypaper_03s.jpg	2	-1	1	0	flypaper_03s.jpg	0	0.0	0	224.003939961083	224.05392310162998	0.0499831405468285	70539
70.639	50	445	0	0	bag	54	136	1	stimuli\bag\bag_08s.jpg	7	-1	1	0	bag_08s.jpg	0	0.0	0	224.10394525202003	224.153912057169	0.0499668051488698	70639
70.739	50	446	0	0	blowgun	147	137	1	stimuli\blowgun\blowgun_08s.jpg	7	-1	1	0	blowgun_08s.jpg	0	0.0	0	224.20394444745	224.253926124889	0.0499816774390638	70739
70.839	50	447	0	0	quesadilla	1261	138	1	stimuli\quesadilla\quesadilla_01b.jpg	0	-1	1	0	quesadilla_01b.jpg	0	0.0	0	224.303947787266	224.35392824607	0.0499804588034749	70839
70.939	50	448	0	0	mouse2	1027	139	1	stimuli\mouse2\mouse2_05s.jpg	4	-1	1	0	mouse2_05s.jpg	0	0.0	0	224.403953321744	224.453928904608	0.0499755828641355	70939
71.039	50	449	0	0	sunroof	1586	140	1	stimuli\sunroof\sunroof_08s.jpg	7	-1	1	0	sunroof_08s.jpg	0	0.0	0	224.503954955377	224.55393273243698	0.0499777770601213	71039
71.139	50	450	0	0	saffron	1345	141	1	stimuli\saffron\saffron_02s.jpg	1	-1	1	0	saffron_02s.jpg	0	0.0	0	224.603956833016	224.653935828712	0.0499789956957102	71139
71.239	50	451	0	0	scrambled_egg	1386	142	1	stimuli\scrambled_egg\scrambled_egg_01b.jpg	0	-1	1	0	scrambled_egg_01b.jpg	0	0.0	0	224.70395773509497	224.75393941253398	0.0499816774390638	71239
71.339	50	452	0	0	cummerbund	459	143	1	stimuli\cummerbund\cummerbund_04s.jpg	3	-1	1	0	cummerbund_04s.jpg	1	0.0	0	224.803964976221	224.853941777721	0.0499768014997244	71339
71.439	50	453	0	0	tray	1705	144	1	stimuli\tray\tray_02s.jpg	1	-1	1	0	tray_02s.jpg	0	0.0	0	224.90396636584802	224.95394536154302	0.0499789956957102	71439
71.539	50	454	0	0	face	569	145	1	stimuli\face\face_06s.jpg	5	-1	1	0	face_06s.jpg	0	0.0	0	225.003965561278	225.053946507629	0.0499809463508427	71539
71.639	50	455	0	0	toothpick	1681	146	1	stimuli\toothpick\toothpick_02s.jpg	1	-1	1	0	toothpick_02s.jpg	0	0.0	0	225.10396938910702	225.15393643826198	0.0499670491553843	71639
71.739	50	456	0	0	puck	1245	147	1	stimuli\puck\puck_11s.jpg	10	-1	1	1	puck_11s.jpg	0	0.0	0	225.20397004717998	225.253952212632	0.0499821654520929	71739
71.839	50	457	0	0	sifter	1443	148	1	stimuli\sifter\sifter_11s.jpg	10	-1	1	0	sifter_11s.jpg	0	0.0	0	225.303972412366	225.353954333812	0.0499819214455783	71839
71.939	50	458	0	0	cigarette	344	149	1	stimuli\cigarette\cigarette_09s.jpg	8	-1	1	0	cigarette_09s.jpg	0	0.0	0	225.403978190385	225.453961330932	0.0499831405468285	71939
72.039	50	459	0	0	raisin	1280	150	1	stimuli\raisin\raisin_10s.jpg	9	-1	1	0	raisin_10s.jpg	0	0.0	0	225.503978848923	225.553961257916	0.0499824089929461	72039
72.139	50	460	0	0	gargoyle	657	151	1	stimuli\gargoyle\gargoyle_07s.jpg	6	-1	1	0	gargoyle_07s.jpg	0	0.0	0	225.60398218920503	225.653965085745	0.04998289654031401	72139
72.239	50	461	0	0	missile	1006	152	1	stimuli\missile\missile_04s.jpg	3	-1	1	0	missile_04s.jpg	0	0.0	0	225.703986992128	225.75396623183	0.0499792397022247	72239
72.339	50	462	0	0	pill	1174	153	1	stimuli\pill\pill_08s.jpg	7	-1	1	0	pill_08s.jpg	0	0.0	0	225.80398838175498	225.853970059659	0.0499816779047251	72339
72.439	50	463	0	0	jar	840	154	1	stimuli\jar\jar_02s.jpg	1	-1	1	0	jar_02s.jpg	0	0.0	0	225.90399586688702	225.953973155934	0.0499772890470922	72439
72.539	50	464	0	0	rat	1285	155	1	stimuli\rat\rat_06s.jpg	5	-1	1	0	rat_06s.jpg	0	0.0	0	226.003993355669	226.05397283891202	0.04997948324307799	72539
72.639	50	465	0	0	iron	832	156	1	stimuli\iron\iron_04s.jpg	3	-1	1	0	iron_04s.jpg	0	0.0	0	226.10399572038997	226.15397739829498	0.0499816779047251	72639
72.739	50	466	0	0	sardine	1359	157	1	stimuli\sardine\sardine_08s.jpg	7	-1	1	0	sardine_08s.jpg	0	0.0	0	226.20399003988098	226.25398293277198	0.0499928928911686	72739
72.839	50	467	0	0	ginger	673	158	1	stimuli\ginger\ginger_02s.jpg	1	-1	1	0	ginger_02s.jpg	0	0.0	0	226.304000206292	226.353984078392	0.0499838721007109	72839
72.939	50	468	0	0	locker	941	159	1	stimuli\locker\locker_08s.jpg	7	-1	1	0	locker_08s.jpg	0	0.0	0	226.404002815485	226.453985956032	0.0499831405468285	72939
73.039	50	469	0	0	headdress	763	160	1	stimuli\headdress\headdress_02s.jpg	1	-1	1	0	headdress_02s.jpg	0	0.0	0	226.50400713086103	226.553986370564	0.0499792397022247	73039
73.139	50	470	0	0	poinsettia	1209	161	1	stimuli\poinsettia\poinsettia_12s.jpg	11	-1	1	0	poinsettia_12s.jpg	1	0.0	0	226.604009252042	226.653991417028	0.0499821649864316	73139
73.239	50	471	0	0	corsage	417	162	1	stimuli\corsage\corsage_09s.jpg	8	-1	1	0	corsage_09s.jpg	0	0.0	0	226.70401332341098	226.75399353820802	0.0499802147969604	73239
73.339	50	472	0	0	stamp2	1536	163	1	stimuli\stamp2\stamp2_01b.jpg	0	-1	1	0	stamp2_01b.jpg	0	0.0	0	226.80401520058498	226.853994684294	0.0499794837087393	73339
73.439	50	473	0	0	landmine	894	164	1	stimuli\landmine\landmine_09s.jpg	8	-1	1	0	landmine_09s.jpg	0	0.0	0	226.90401805331902	226.95399802457501	0.0499799712561071	73439
73.539	50	474	0	0	retainer	1303	165	1	stimuli\retainer\retainer_12s.jpg	11	-1	1	0	retainer_12s.jpg	0	0.0	0	227.004019930493	227.05400112085	0.0499811903573573	73539
73.639	50	475	0	0	megaphone	993	166	1	stimuli\megaphone\megaphone_09s.jpg	8	-1	1	0	megaphone_09s.jpg	0	0.0	0	227.10402522142996	227.15399178303798	0.0499665616080165	73639
73.739	50	476	0	0	tripod	1714	167	1	stimuli\tripod\tripod_06s.jpg	5	-1	1	0	tripod_06s.jpg	0	0.0	0	227.20402587950198	227.254006094299	0.0499802147969604	73739
73.839	50	477	0	0	octopus	1070	168	1	stimuli\octopus\octopus_10s.jpg	9	-1	1	0	octopus_10s.jpg	0	0.0	0	227.30402653804	227.35400919104	0.0499826529994607	73839
73.939	50	478	0	0	telegraph	1638	169	1	stimuli\telegraph\telegraph_11s.jpg	10	-1	1	0	telegraph_11s.jpg	0	0.0	0	227.40402939030898	227.454010824207	0.0499814338982105	73939
74.039	50	479	0	0	latte	901	170	1	stimuli\latte\latte_08s.jpg	7	-1	1	0	latte_08s.jpg	0	0.0	0	227.504033218138	227.554014164489	0.0499809463508427	74039
74.139	50	480	0	0	bandage	66	171	1	stimuli\bandage\bandage_03s.jpg	2	-1	1	0	bandage_03s.jpg	0	0.0	0	227.604036558419	227.654020186514	0.0499836280941963	74139
74.239	50	481	0	0	ping-pong_table	1184	172	1	stimuli\ping-pong_table\ping-pong_table_06s.jpg	5	-1	1	1	ping-pong_table_06s.jpg	0	0.0	0	227.70403989870098	227.754019138403	0.0499792397022247	74239
74.339	50	482	0	0	space_shuttle	1501	173	1	stimuli\space_shuttle\space_shuttle_11s.jpg	10	-1	1	0	space_shuttle_11s.jpg	0	0.0	0	227.80404250742902	227.854025404435	0.0499828970059752	74339
74.439	50	483	0	0	button1	230	174	1	stimuli\button1\button1_05s.jpg	4	-1	1	0	button1_05s.jpg	0	0.0	0	227.904047554359	227.954025330953	0.049977776594460004	74439
74.539	50	484	0	0	boat	154	175	1	stimuli\boat\boat_11n.jpg	10	-1	1	0	boat_11n.jpg	0	0.0	0	228.004046262242	228.054026233032	0.0499799707904458	74539
74.639	50	485	0	0	lectern	908	176	1	stimuli\lectern\lectern_11s.jpg	10	-1	1	0	lectern_11s.jpg	0	0.0	0	228.10404838342203	228.15403323061798	0.0499848471954465	74639
74.739	50	486	0	0	bologna	158	177	1	stimuli\bologna\bologna_12s.jpg	11	-1	1	0	bologna_12s.jpg	0	0.0	0	228.204050016589	228.25403827754798	0.0499882609583437	74739
74.839	50	487	0	0	lollipop	945	178	1	stimuli\lollipop\lollipop_12s.jpg	11	-1	1	0	lollipop_12s.jpg	0	0.0	0	228.304061402567	228.35403674142398	0.04997533885762099	74839
74.939	50	488	0	0	bull	214	179	1	stimuli\bull\bull_06s.jpg	5	-1	1	0	bull_06s.jpg	0	0.0	0	228.404058403801	228.45403886260502	0.0499804588034749	74939
75.039	50	489	0	0	shopping_basket	1427	180	1	stimuli\shopping_basket\shopping_basket_10s.jpg	9	-1	1	0	shopping_basket_10s.jpg	0	0.0	0	228.50405906233897	228.554042202886	0.0499831405468285	75039
75.139	50	490	0	0	arugula	40	181	1	stimuli\arugula\arugula_07s.jpg	6	-1	1	0	arugula_07s.jpg	1	0.892178420908749	1	228.604063377716	228.654043592513	0.0499802147969604	75139
75.239	50	491	0	0	rattlesnake	1288	182	1	stimuli\rattlesnake\rattlesnake_01b.jpg	0	-1	1	0	rattlesnake_01b.jpg	0	0.0	0	228.704065010883	228.75404546968602	0.0499804588034749	75239
75.339	50	492	0	0	dragonfly	514	183	1	stimuli\dragonfly\dragonfly_06s.jpg	5	-1	1	0	dragonfly_06s.jpg	0	0.0	0	228.804069326725	228.854048809968	0.04997948324307799	75339
75.439	50	493	0	0	rust	1342	184	1	stimuli\rust\rust_05s.jpg	4	-1	1	0	rust_05s.jpg	0	0.0	0	228.90407461719602	228.954051174689	0.0499765574932098	75439
75.539	50	494	0	0	mousetrap	1029	185	1	stimuli\mousetrap\mousetrap_09s.jpg	8	-1	1	0	mousetrap_09s.jpg	0	0.0	0	229.00407356862004	229.054056221619	0.0499826529994607	75539
75.639	50	495	0	0	oilcan	1073	186	1	stimuli\oilcan\oilcan_04s.jpg	3	-1	1	0	oilcan_04s.jpg	0	0.0	0	229.104076421354	229.154057855252	0.0499814338982105	75639
75.739	50	496	0	0	hourglass	807	187	1	stimuli\hourglass\hourglass_02s.jpg	1	-1	1	0	hourglass_02s.jpg	0	0.0	0	229.204079761636	229.254063145723	0.0499833840876818	75739
75.839	50	497	0	0	stick	1552	188	1	stimuli\stick\stick_02s.jpg	1	-1	1	0	stick_02s.jpg	0	0.0	0	229.304081638809	229.354063316714	0.0499816779047251	75839
75.939	50	498	0	0	mongoose	1016	189	1	stimuli\mongoose\mongoose_04s.jpg	3	-1	1	0	mongoose_04s.jpg	0	0.0	0	229.40408571064498	229.45406470633998	0.0499789956957102	75939
76.039	50	499	0	0	ankle	22	190	1	stimuli\ankle\ankle_03s.jpg	2	-1	1	0	ankle_03s.jpg	0	0.0	0	229.504086368717	229.554067559075	0.0499811903573573	76039
76.139	50	500	0	0	dog	495	191	1	stimuli\dog\dog_10s.jpg	9	-1	1	0	dog_10s.jpg	0	0.0	0	229.604092390742	229.654059439898	0.0499670491553843	76139
76.239	50	501	0	0	french_fries	641	192	1	stimuli\french_fries\french_fries_04s.jpg	3	-1	1	0	french_fries_04s.jpg	0	0.0	0	229.70409134263198	229.754077408928	0.0499860662966967	76239
76.339	50	502	0	0	handlebar	749	193	1	stimuli\handlebar\handlebar_11s.jpg	10	-1	1	0	handlebar_11s.jpg	0	0.0	0	229.80409419490002	229.85406465735298	0.0499704624526203	76339
76.439	50	503	0	0	bucket	209	194	1	stimuli\bucket\bucket_11s.jpg	10	-1	1	0	bucket_11s.jpg	0	0.0	0	229.904104118235	229.95408189482998	0.049977776594460004	76439
76.539	50	504	0	0	hot-air_balloon	801	195	1	stimuli\hot-air_balloon\hot-air_balloon_02s.jpg	1	-1	1	0	hot-air_balloon_02s.jpg	0	0.0	0	230.00410282611801	230.05408035870602	0.0499775325879455	76539
76.639	50	505	0	0	turtle	1736	196	1	stimuli\turtle\turtle_10n.jpg	9	-1	1	0	turtle_10n.jpg	0	0.0	0	230.104104459286	230.15407443419102	0.0499699749052525	76639
76.739	50	506	0	0	canvas	264	197	1	stimuli\canvas\canvas_02s.jpg	1	-1	1	0	canvas_02s.jpg	0	0.0	0	230.204103898723	230.254086307716	0.0499824089929461	76739
76.839	50	507	0	0	sandbox	1354	198	1	stimuli\sandbox\sandbox_01b.jpg	0	-1	1	0	sandbox_01b.jpg	1	0.0	0	230.30410845810502	230.354091598652	0.0499831405468285	76839
76.939	50	508	0	0	odometer	1071	199	1	stimuli\odometer\odometer_06s.jpg	5	-1	1	0	odometer_06s.jpg	0	0.0	0	230.404114236124	230.454096157569	0.0499819214455783	76939
77.039	50	509	0	0	porthole	1227	200	1	stimuli\porthole\porthole_02s.jpg	1	-1	1	0	porthole_02s.jpg	0	0.0	0	230.50411513820302	230.55409730365503	0.0499821654520929	77039
77.139	50	510	0	0	sewing_machine	1407	201	1	stimuli\sewing_machine\sewing_machine_03s.jpg	2	-1	1	0	sewing_machine_03s.jpg	0	0.0	0	230.604119697586	230.654097230639	0.0499775330536067	77139
77.239	50	511	0	0	walker1	1773	202	1	stimuli\walker1\walker1_03s.jpg	2	-1	1	0	walker1_03s.jpg	0	0.0	0	230.704121331219	230.75410252111	0.049981189891696	77239
77.339	50	512	0	0	cabinet	233	203	1	stimuli\cabinet\cabinet_06s.jpg	5	-1	1	0	cabinet_06s.jpg	0	0.0	0	230.804121501744	230.854104154743	0.0499826529994607	77339
77.439	50	513	0	0	worm	1836	204	1	stimuli\worm\worm_01b.jpg	0	-1	1	0	worm_01b.jpg	0	0.0	0	230.904126792215	230.95410554437	0.0499787521548569	77439
77.539	50	514	0	0	tuba	1723	205	1	stimuli\tuba\tuba_05s.jpg	4	-1	1	0	tuba_05s.jpg	0	0.0	0	231.00412818230703	231.054108397104	0.0499802147969604	77539
77.639	50	515	0	0	stapler	1539	206	1	stimuli\stapler\stapler_08s.jpg	7	-1	1	0	stapler_08s.jpg	0	0.0	0	231.104130791035	231.154111493379	0.0499807023443282	77639
77.739	50	516	0	0	cornhusk	414	207	1	stimuli\cornhusk\cornhusk_01b.jpg	0	-1	1	0	cornhusk_01b.jpg	0	0.0	0	231.204136813059	231.254115321208	0.0499785081483424	77739
77.839	50	517	0	0	buckle	210	208	1	stimuli\buckle\buckle_07s.jpg	6	-1	1	0	buckle_07s.jpg	0	0.0	0	231.304135520943	231.354116467293	0.0499809463508427	77839
77.939	50	518	0	0	pencil	1142	209	1	stimuli\pencil\pencil_07s.jpg	6	-1	1	0	pencil_07s.jpg	0	0.0	0	231.404137642123	231.454119563568	0.0499819214455783	77939
78.039	50	519	0	0	pedometer	1137	210	1	stimuli\pedometer\pedometer_08s.jpg	7	-1	1	0	pedometer_08s.jpg	0	0.0	0	231.504138787743	231.554124122486	0.0499853347428143	78039
78.139	50	520	0	0	knitting_needle	881	211	1	stimuli\knitting_needle\knitting_needle_04s.jpg	3	-1	1	0	knitting_needle_04s.jpg	0	0.0	0	231.604144566227	231.65412648767202	0.0499819214455783	78139
78.239	50	521	0	0	mustache	1043	212	1	stimuli\mustache\mustache_02s.jpg	1	-1	1	0	mustache_02s.jpg	0	0.0	0	231.704148394056	231.754125439096	0.0499770450405777	78239
78.339	50	522	0	0	axe	45	213	1	stimuli\axe\axe_08n.jpg	7	-1	1	0	axe_08n.jpg	0	0.0	0	231.804147833027	231.854129266925	0.0499814338982105	78339
78.439	50	523	0	0	gyroscope	731	214	1	stimuli\gyroscope\gyroscope_08s.jpg	7	-1	1	0	gyroscope_08s.jpg	0	0.0	0	231.904157512356	231.95413065701698	0.0499731446616352	78439
78.539	50	524	0	0	scallion	1372	215	1	stimuli\scallion\scallion_12s.jpg	11	-1	1	0	scallion_12s.jpg	0	0.0	0	232.004156951793	232.05414057988702	0.0499836280941963	78539
78.639	50	525	0	0	garbage_truck	656	216	1	stimuli\garbage_truck\garbage_truck_10s.jpg	9	-1	1	0	garbage_truck_10s.jpg	0	0.0	0	232.104160535615	232.154151478317	0.0499909427016973	78639
78.739	50	526	0	0	splinter	1516	217	1	stimuli\splinter\splinter_07s.jpg	6	-1	1	1	splinter_07s.jpg	0	0.0	0	232.204161925241	232.254143115599	0.0499811903573573	78739
78.839	50	527	0	0	ferris_wheel	579	218	1	stimuli\ferris_wheel\ferris_wheel_12s.jpg	11	-1	1	0	ferris_wheel_12s.jpg	0	0.0	0	232.30416380288102	232.35414889361698	0.0499850907362998	78839
78.939	50	528	0	0	keyhole	871	219	1	stimuli\keyhole\keyhole_02s.jpg	1	-1	1	0	keyhole_02s.jpg	0	0.0	0	232.404166899156	232.454145894852	0.0499789956957102	78939
79.039	50	529	0	0	paper	1112	220	1	stimuli\paper\paper_04s.jpg	3	-1	1	0	paper_04s.jpg	0	0.0	0	232.504168288782	232.55415118532298	0.04998289654031401	79039
79.139	50	530	0	0	backdrop	47	221	1	stimuli\backdrop\backdrop_09s.jpg	8	-1	1	0	backdrop_09s.jpg	0	0.0	0	232.60417236061798	232.654153062962	0.0499807023443282	79139
79.239	50	531	0	0	laptop	897	222	1	stimuli\laptop\laptop_06s.jpg	5	-1	1	0	laptop_06s.jpg	0	0.0	0	232.70417740708197	232.754155427683	0.0499780206009746	79239
79.339	50	532	0	0	showerhead	1436	223	1	stimuli\showerhead\showerhead_09s.jpg	8	-1	1	0	showerhead_09s.jpg	0	0.0	0	232.80417806562	232.854146333877	0.0499682682566345	79339
79.439	50	533	0	0	balance_beam	58	224	1	stimuli\balance_beam\balance_beam_08s.jpg	7	-1	1	0	balance_beam_08s.jpg	0	0.0	0	232.904178967699	232.954159182496	0.0499802147969604	79439
79.539	50	534	0	0	punch1	1254	225	1	stimuli\punch1\punch1_04s.jpg	3	-1	1	0	punch1_04s.jpg	0	0.0	0	233.00418206397399	233.054163741879	0.0499816779047251	79539
79.639	50	535	0	0	anchor	21	226	1	stimuli\anchor\anchor_11n.jpg	10	-1	1	0	anchor_11n.jpg	0	0.0	0	233.10421441774798	233.154165863059	0.0499514453113079	79639
79.739	50	536	0	0	shoe_polish	1424	227	1	stimuli\shoe_polish\shoe_polish_06s.jpg	5	-1	1	0	shoe_polish_06s.jpg	0	0.0	0	233.204191426281	233.254171397537	0.0499799712561071	79739
79.839	50	537	0	0	saucer	1363	228	1	stimuli\saucer\saucer_11s.jpg	10	-1	1	0	saucer_11s.jpg	0	0.0	0	233.30418915906898	233.354170836508	0.0499816774390638	79839
79.939	50	538	0	0	kite	874	229	1	stimuli\kite\kite_04s.jpg	3	-1	1	0	kite_04s.jpg	0	0.0	0	233.404193474445	233.45417588343798	0.0499824089929461	79939
80.039	50	539	0	0	elephant	554	230	1	stimuli\elephant\elephant_03n.jpg	2	-1	1	0	elephant_03n.jpg	0	0.0	0	233.50419583916698	233.554176785517	0.0499809463508427	80039
80.139	50	540	0	0	dreidel	517	231	1	stimuli\dreidel\dreidel_03s.jpg	2	-1	1	0	dreidel_03s.jpg	0	0.0	0	233.604196985252	233.65417744405602	0.0499804588034749	80139
80.239	50	541	0	0	pan	1103	232	1	stimuli\pan\pan_08s.jpg	7	-1	1	0	pan_08s.jpg	0	0.0	0	233.704202275723	233.754181759432	0.0499794837087393	80239
80.339	50	542	0	0	flashlight	611	233	1	stimuli\flashlight\flashlight_11n.jpg	10	-1	1	0	flashlight_11n.jpg	0	0.0	0	233.804203909356	233.85418534325402	0.0499814338982105	80339
80.439	50	543	0	0	badge	52	234	1	stimuli\badge\badge_01b.jpg	0	-1	1	0	badge_01b.jpg	0	0.0	0	233.90420529898302	233.95418600132703	0.0499807023443282	80439
80.539	50	544	0	0	sprouts	1524	235	1	stimuli\sprouts\sprouts_05s.jpg	4	-1	1	0	sprouts_05s.jpg	0	0.0	0	234.004209370818	234.05417739506802	0.0499680242501199	80539
80.639	50	545	0	0	licorice	922	236	1	stimuli\licorice\licorice_12s.jpg	11	-1	1	0	licorice_12s.jpg	0	0.0	0	234.10421222308702	234.154196339194	0.0499841161072254	80639
80.739	50	546	0	0	foot	628	237	1	stimuli\foot\foot_05s.jpg	4	-1	1	1	foot_05s.jpg	0	0.0	0	234.204215075821	234.254195290618	0.0499802147969604	80739
80.839	50	547	0	0	scallop	1373	238	1	stimuli\scallop\scallop_01b.jpg	0	-1	1	0	scallop_01b.jpg	0	0.0	0	234.304206225555	234.35419863089902	0.0499924053438008	80839
80.939	50	548	0	0	teabag	1632	239	1	stimuli\teabag\teabag_01b.jpg	0	-1	1	0	teabag_01b.jpg	0	0.0	0	234.40421980572899	234.45420099562	0.049981189891696	80939
81.039	50	549	0	0	seaplane	1398	240	1	stimuli\seaplane\seaplane_03s.jpg	2	-1	1	0	seaplane_03s.jpg	0	0.0	0	234.50422314601002	234.554203116801	0.0499799707904458	81039
81.139	50	550	0	0	flower	619	241	1	stimuli\flower\flower_06s.jpg	5	-1	1	0	flower_06s.jpg	0	0.0	0	234.60422380408298	234.65420499444	0.0499811903573573	81139
81.239	50	551	0	0	emerald	555	242	1	stimuli\emerald\emerald_06s.jpg	5	-1	1	0	emerald_06s.jpg	0	0.0	0	234.704231532756	234.754211260006	0.0499797272495925	81239
81.339	50	552	0	0	tambourine	1619	243	1	stimuli\tambourine\tambourine_04s.jpg	3	-1	1	0	tambourine_04s.jpg	0	0.0	0	234.804233410396	234.85421021189498	0.0499768014997244	81339
81.439	50	553	0	0	bookmark	166	244	1	stimuli\bookmark\bookmark_01s.jpg	0	-1	1	0	bookmark_01s.jpg	0	0.0	0	234.904232118279	234.954214283265	0.0499821649864316	81439
81.539	50	554	0	0	guitar	723	245	1	stimuli\guitar\guitar_01b.jpg	0	-1	1	0	guitar_01b.jpg	0	0.0	0	235.00423545809502	235.05422981409401	0.0499943559989333	81539
81.639	50	555	0	0	bathrobe	90	246	1	stimuli\bathrobe\bathrobe_12s.jpg	11	-1	1	0	bathrobe_12s.jpg	0	0.0	0	235.104240505025	235.154218769632	0.0499782646074891	81639
81.739	50	556	0	0	tiramisu	1663	247	1	stimuli\tiramisu\tiramisu_11s.jpg	10	-1	1	0	tiramisu_11s.jpg	1	0.0	0	235.204241407104	235.25422259746102	0.0499811903573573	81739
81.839	50	557	0	0	pantyhose	1110	248	1	stimuli\pantyhose\pantyhose_03s.jpg	2	-1	1	0	pantyhose_03s.jpg	0	0.0	0	235.304243284743	235.354226181284	0.04998289654031401	81839
81.939	50	558	0	0	candle	253	249	1	stimuli\candle\candle_06n.jpg	5	-1	1	0	candle_06n.jpg	0	0.0	0	235.404246624559	235.45422659581502	0.0499799712561071	81939
82.039	50	559	0	0	joystick	852	250	1	stimuli\joystick\joystick_12s.jpg	11	-1	1	0	joystick_12s.jpg	1	0.0	0	235.504249477293	235.55422969209	0.0499802147969604	82039
82.139	50	560	0	0	shrimp	1438	251	1	stimuli\shrimp\shrimp_05s.jpg	4	-1	1	0	shrimp_05s.jpg	0	0.0	0	235.60425184247998	235.654230594169	0.0499787516891956	82139
82.239	50	561	0	0	hairpin	737	252	1	stimuli\hairpin\hairpin_06s.jpg	5	-1	1	0	hairpin_06s.jpg	0	0.0	0	235.70425542630298	235.754237347748	0.0499819214455783	82239
82.339	50	562	0	0	pickle	1167	253	1	stimuli\pickle\pickle_11s.jpg	10	-1	1	0	pickle_11s.jpg	0	0.0	0	235.804255840834	235.854238737375	0.04998289654031401	82339
82.439	50	563	0	0	leotard	918	254	1	stimuli\leotard\leotard_03s.jpg	2	-1	1	0	leotard_03s.jpg	0	0.0	0	235.90426040021703	235.95424207765598	0.0499816774390638	82439
82.539	50	564	0	0	ferret	578	255	1	stimuli\ferret\ferret_04s.jpg	3	-1	1	0	ferret_04s.jpg	0	0.0	0	236.004263252486	236.054244198836	0.0499809463508427	82539
82.639	50	565	0	0	burner	224	256	1	stimuli\burner\burner_04s.jpg	3	-1	1	0	burner_04s.jpg	0	0.0	0	236.104263667017	236.15424729511102	0.0499836280941963	82639
82.739	50	566	0	0	whoopee_cushion	1814	257	1	stimuli\whoopee_cushion\whoopee_cushion_07s.jpg	6	-1	1	0	whoopee_cushion_07s.jpg	0	0.0	0	236.204269201495	236.25423722574502	0.0499680242501199	82739
82.839	50	567	0	0	watch	1786	258	1	stimuli\watch\watch_02s.jpg	1	-1	1	0	watch_02s.jpg	0	0.0	0	236.30427424842497	236.354258608073	0.0499843596480787	82839
82.939	50	568	0	0	mousse	1030	259	1	stimuli\mousse\mousse_10s.jpg	9	-1	1	0	mousse_10s.jpg	0	0.0	0	236.40427441895	236.454257803503	0.0499833845533431	82939
83.039	50	569	0	0	yacht	1844	260	1	stimuli\yacht\yacht_03s.jpg	2	-1	1	0	yacht_03s.jpg	0	0.0	0	236.504278246779	236.554255535826	0.0499772890470922	83039
83.139	50	570	0	0	tupperware	1729	261	1	stimuli\tupperware\tupperware_11s.jpg	10	-1	1	0	tupperware_11s.jpg	0	0.0	0	236.60428061196603	236.654260826763	0.0499802147969604	83139
83.239	50	571	0	0	leek	910	262	1	stimuli\leek\leek_09s.jpg	8	-1	1	0	leek_09s.jpg	0	0.0	0	236.704286877532	236.754261484835	0.0499746073037386	83239
83.339	50	572	0	0	tulip	1726	263	1	stimuli\tulip\tulip_12s.jpg	11	-1	1	0	tulip_12s.jpg	0	0.0	0	236.804283147212	236.854273602366	0.0499904551543295	83339
83.439	50	573	0	0	ladder	886	264	1	stimuli\ladder\ladder_04s.jpg	3	-1	1	0	ladder_04s.jpg	0	0.0	0	236.904289900791	236.954271091148	0.0499811903573573	83439
83.539	50	574	0	0	syrup	1605	265	1	stimuli\syrup\syrup_04s.jpg	3	-1	1	0	syrup_04s.jpg	0	0.0	0	237.004290559329	237.05427004257197	0.04997948324307799	83539
83.639	50	575	0	0	clipboard	355	266	1	stimuli\clipboard\clipboard_02s.jpg	1	-1	1	0	clipboard_02s.jpg	0	0.0	0	237.104292192962	237.154274601955	0.0499824089929461	83639
83.739	50	576	0	0	toaster_oven	1667	267	1	stimuli\toaster_oven\toaster_oven_11s.jpg	10	-1	1	0	toaster_oven_11s.jpg	0	0.0	0	237.204293338582	237.25428111152698	0.0499877729453146	83739
83.839	50	577	0	0	safety_pin	1344	268	1	stimuli\safety_pin\safety_pin_04s.jpg	3	-1	1	0	safety_pin_04s.jpg	0	0.0	0	237.304299604613	237.354270067066	0.0499704624526203	83839
83.939	50	578	0	0	eel	545	269	1	stimuli\eel\eel_12s.jpg	11	-1	1	0	eel_12s.jpg	0	0.0	0	237.404299775138	237.454280965496	0.0499811903573573	83939
84.039	50	579	0	0	duffel_bag	529	270	1	stimuli\duffel_bag\duffel_bag_10s.jpg	9	-1	1	0	duffel_bag_10s.jpg	0	0.0	0	237.50430409051498	237.55428308667598	0.0499789961613715	84039
84.139	50	580	0	0	mold1	1012	271	1	stimuli\mold1\mold1_03s.jpg	2	-1	1	0	mold1_03s.jpg	0	0.0	0	237.604307430796	237.6542878896	0.0499804588034749	84139
84.239	50	581	0	0	ironing_board	833	272	1	stimuli\ironing_board\ironing_board_06s.jpg	5	-1	1	0	ironing_board_06s.jpg	0	0.0	0	237.70430955197702	237.75428830413102	0.0499787521548569	84239
84.339	50	582	0	0	bubble_wrap	208	273	1	stimuli\bubble_wrap\bubble_wrap_01b.jpg	0	-1	1	0	bubble_wrap_01b.jpg	0	0.0	0	237.80431142915	237.854293351062	0.0499819219112396	84339
84.439	50	583	0	0	frog	644	274	1	stimuli\frog\frog_06s.jpg	5	-1	1	0	frog_06s.jpg	0	0.0	0	237.904314281885	237.95429595978902	0.0499816779047251	84439
84.539	50	584	0	0	rolling_pin	1328	275	1	stimuli\rolling_pin\rolling_pin_02s.jpg	1	-1	1	0	rolling_pin_02s.jpg	0	0.0	0	238.004316403065	238.05429832451	0.0499819214455783	84539
84.639	50	585	0	0	fire_alarm	591	276	1	stimuli\fire_alarm\fire_alarm_09s.jpg	8	-1	1	0	fire_alarm_09s.jpg	0	0.0	0	238.104318767786	238.154299714137	0.0499809463508427	84639
84.739	50	586	0	0	stir_fry	1557	277	1	stimuli\stir_fry\stir_fry_07s.jpg	6	-1	1	0	stir_fry_07s.jpg	0	0.0	0	238.20432113297298	238.254303054418	0.0499819214455783	84739
84.839	50	587	0	0	raccoon	1266	278	1	stimuli\raccoon\raccoon_05s.jpg	4	-1	1	0	raccoon_05s.jpg	0	0.0	0	238.304325204808	238.35430566314602	0.0499804583378136	84839
84.939	50	588	0	0	music_box	1041	279	1	stimuli\music_box\music_box_07s.jpg	6	-1	1	0	music_box_07s.jpg	1	0.0	0	238.40432635042802	238.454314123373	0.0499877729453146	84939
85.039	50	589	0	0	thorn	1650	280	1	stimuli\thorn\thorn_07s.jpg	6	-1	1	0	thorn_07s.jpg	0	0.0	0	238.504331153352	238.554315513	0.0499843596480787	85039
85.139	50	590	0	0	lanyard	896	281	1	stimuli\lanyard\lanyard_08s.jpg	7	-1	1	0	lanyard_08s.jpg	0	0.0	0	238.60433376207902	238.654313245788	0.0499794837087393	85139
85.239	50	591	0	0	veil	1755	282	1	stimuli\veil\veil_09s.jpg	8	-1	1	0	veil_09s.jpg	0	0.0	0	238.704335639719	238.754316098522	0.0499804588034749	85239
85.339	50	592	0	0	train	1698	283	1	stimuli\train\train_11n.jpg	10	-1	1	0	train_11n.jpg	0	0.0	0	238.804341661744	238.85431846324403	0.0499768014997244	85339
85.439	50	593	0	0	duct	527	284	1	stimuli\duct\duct_09s.jpg	8	-1	1	0	duct_09s.jpg	0	0.0	0	238.904339638073	238.954322291072	0.0499826529994607	85439
85.539	50	594	0	0	hood	791	285	1	stimuli\hood\hood_12s.jpg	11	-1	1	0	hood_12s.jpg	0	0.0	0	239.00435004895598	239.05432660644902	0.0499765574932098	85539
85.639	50	595	0	0	icicle	824	286	1	stimuli\icicle\icicle_04s.jpg	3	-1	1	0	icicle_04s.jpg	0	0.0	0	239.10434875637299	239.154327752534	0.0499789961613715	85639
85.739	50	596	0	0	barbell	72	287	1	stimuli\barbell\barbell_02s.jpg	1	-1	1	0	barbell_02s.jpg	0	0.0	0	239.204349414911	239.254329142161	0.0499797272495925	85739
85.839	50	597	0	0	asparagus	42	288	1	stimuli\asparagus\asparagus_08s.jpg	7	-1	1	0	asparagus_08s.jpg	0	0.0	0	239.30435007298402	239.35433126334098	0.0499811903573573	85839
85.939	50	598	0	0	appetizer	29	289	1	stimuli\appetizer\appetizer_02s.jpg	1	-1	1	0	appetizer_02s.jpg	0	0.0	0	239.404354144819	239.45432411972402	0.0499699749052525	85939
86.039	50	599	0	0	cigarette_holder	346	290	1	stimuli\cigarette_holder\cigarette_holder_03s.jpg	2	-1	1	0	cigarette_holder_03s.jpg	0	0.0	0	239.50435724109403	239.55433916253997	0.0499819214455783	86039
86.139	50	600	0	0	fireplace	595	291	1	stimuli\fireplace\fireplace_06s.jpg	5	-1	1	0	fireplace_06s.jpg	0	0.0	0	239.604360581376	239.65433031227403	0.0499697308987379	86139
86.239	50	601	0	0	comb	389	292	1	stimuli\comb\comb_06s.jpg	5	-1	1	0	comb_06s.jpg	0	0.0	0	239.704362215009	239.754330970813	0.0499687558040023	86239
86.339	50	602	0	0	grinder	716	293	1	stimuli\grinder\grinder_11s.jpg	10	-1	1	0	grinder_11s.jpg	0	0.0	0	239.80435531493302	239.854345282074	0.0499899671413004	86339
86.439	50	603	0	0	swimming_pool	1596	294	1	stimuli\swimming_pool\swimming_pool_08s.jpg	7	-1	1	0	swimming_pool_08s.jpg	0	0.0	0	239.904356948566	239.954336188268	0.0499792397022247	86439
86.539	50	604	0	0	chess_piece	317	295	1	stimuli\chess_piece\chess_piece_06s.jpg	5	-1	1	0	chess_piece_06s.jpg	0	0.0	0	240.00436857808398	240.054351231083	0.0499826529994607	86539
86.639	50	605	0	0	smoothie	1474	296	1	stimuli\smoothie\smoothie_03s.jpg	2	-1	1	0	smoothie_03s.jpg	0	0.0	0	240.104373381473	240.154353839811	0.0499804583378136	86639
86.739	50	606	0	0	wrench	1841	297	1	stimuli\wrench\wrench_12n.jpg	11	-1	1	0	wrench_12n.jpg	0	0.0	0	240.204375990201	240.254357911646	0.0499819214455783	86739
86.839	50	607	0	0	wig	1816	298	1	stimuli\wig\wig_10s.jpg	9	-1	1	0	wig_10s.jpg	0	0.0	0	240.304378354922	240.354359301273	0.0499809463508427	86839
86.939	50	608	0	0	scalpel	1374	299	1	stimuli\scalpel\scalpel_08s.jpg	7	-1	1	0	scalpel_08s.jpg	0	0.0	0	240.404380232561	240.454363616649	0.0499833840876818	86939
87.039	50	609	0	0	jersey	846	300	1	stimuli\jersey\jersey_08s.jpg	7	-1	1	0	jersey_08s.jpg	0	0.0	0	240.50438332883598	240.554368907586	0.0499855787493289	87039
87.139	50	610	0	0	weed	1802	301	1	stimuli\weed\weed_09s.jpg	8	-1	1	0	weed_09s.jpg	0	0.0	0	240.60439227661098	240.654354449362	0.0499621727503836	87139
87.239	50	611	0	0	alpaca	15	302	1	stimuli\alpaca\alpaca_07s.jpg	6	-1	1	0	alpaca_07s.jpg	1	0.0	0	240.70437733084	240.754372174386	0.0499948435463011	87239
87.339	50	612	0	0	electric_chair	553	303	1	stimuli\electric_chair\electric_chair_04s.jpg	3	-1	1	0	electric_chair_04s.jpg	0	0.0	0	240.804394324776	240.854373320471	0.0499789956957102	87339
