onset	duration	eventnumber	blocksequencenumber	isteststim	object	objectnumber	presentationnumber	sequencenumber	stim	stimnumber	teststimnumber	withinsequencenumber	istarget	stimname	response	rt	correct	time_stimon	time_stimoff	stimdur	sample
31.669	50	0	0	0	dip	487	0	0	stimuli\dip\dip_03s.jpg	2	-1	0	0	dip_03s.jpg	0	0.0	0	25.5868953043828	25.636853271687897	0.0499579673050903	31669
31.769	50	1	0	0	pole	1213	1	0	stimuli\pole\pole_10s.jpg	9	-1	0	0	pole_10s.jpg	0	0.0	0	25.6868785303086	25.736876238544898	0.049997708236333004	31769
31.869	50	2	0	0	paper_plate	1114	2	0	stimuli\paper_plate\paper_plate_12s.jpg	11	-1	0	0	paper_plate_12s.jpg	0	0.0	0	25.786893695243602	25.836875555862196	0.0499818606185727	31869
31.969	50	3	0	0	car	267	3	0	stimuli\car\car_10s.jpg	9	-1	0	0	car_10s.jpg	0	0.0	0	25.8869159306632	25.936878042703	0.0499621120397933	31969
32.069	50	4	0	0	hat	757	4	0	stimuli\hat\hat_01b.jpg	0	-1	0	0	hat_01b.jpg	0	0.0	0	25.986901838507	26.036881748586897	0.0499799100798555	32069
32.169	50	5	0	0	powder	1236	5	0	stimuli\powder\powder_11s.jpg	10	-1	0	0	powder_11s.jpg	0	0.0	0	26.0869011558243	26.137600546877398	0.0506993910530582	32169
32.269	50	6	0	0	map	970	6	0	stimuli\map\map_06s.jpg	5	-1	0	0	map_06s.jpg	0	0.0	0	26.1868797493516	26.236886478494895	0.050006729143205995	32269
32.369	50	7	0	0	rake	1281	7	0	stimuli\rake\rake_05s.jpg	4	-1	0	0	rake_05s.jpg	0	0.0	0	26.286906373337803	26.3368904282106	0.0499840548727661	32369
32.469	50	8	0	0	pita	1189	8	0	stimuli\pita\pita_05s.jpg	4	-1	0	0	pita_05s.jpg	0	0.0	0	26.3869105668855	26.4368751170114	0.0499645501258783	32469
32.569	50	9	0	0	bison	134	9	0	stimuli\bison\bison_08s.jpg	7	-1	0	0	bison_08s.jpg	0	0.0	0	26.486914028937502	26.536893939075497	0.0499799101380631	32569
32.669	50	10	0	0	printer	1240	10	0	stimuli\printer\printer_03s.jpg	2	-1	0	0	printer_03s.jpg	0	0.0	0	26.586915784399	26.636896182142703	0.0499803977436386	32669
32.769	50	11	0	0	antelope	26	11	0	stimuli\antelope\antelope_10n.jpg	9	-1	0	0	antelope_10n.jpg	0	0.0	0	26.686918027407998	26.736901594675103	0.0499835672671907	32769
32.869	50	12	0	0	trolley	1715	12	0	stimuli\trolley\trolley_06s.jpg	5	-1	0	0	trolley_06s.jpg	0	0.0	0	26.786901497165697	26.836873117776104	0.0499716206104495	32869
32.969	50	13	0	0	mailbox	960	13	0	stimuli\mailbox\mailbox_07s.jpg	6	-1	0	0	mailbox_07s.jpg	0	0.0	0	26.8869017897523	26.936904374102603	0.0500025843502954	32969
33.069	50	14	0	0	dumbwaiter	531	14	0	stimuli\dumbwaiter\dumbwaiter_02s.jpg	1	-1	0	0	dumbwaiter_02s.jpg	0	0.0	0	26.98692378134	27.0368900381145	0.0499662567744963	33069
33.169	50	15	0	0	pea	1128	15	0	stimuli\pea\pea_10s.jpg	9	-1	0	0	pea_10s.jpg	0	0.0	0	27.0869101767894	27.1368974011857	0.0499872243963182	33169
33.269	50	16	0	0	deodorant	479	16	0	stimuli\deodorant\deodorant_03s.jpg	2	-1	0	0	deodorant_03s.jpg	0	0.0	0	27.1869309493341	27.236911834683298	0.0499808853492141	33269
33.369	50	17	0	0	compass	392	17	0	stimuli\compass\compass_05s.jpg	4	-1	0	0	compass_05s.jpg	0	0.0	0	27.286933192343	27.336917003442103	0.0499838110990822	33369
33.469	50	18	0	0	slipper	1468	18	0	stimuli\slipper\slipper_04s.jpg	3	-1	0	0	slipper_04s.jpg	0	0.0	0	27.3869203192298	27.436914370278803	0.0499940510489978	33469
33.569	50	19	0	0	man	963	19	0	stimuli\man\man_05s.jpg	4	-1	0	0	man_05s.jpg	0	0.0	0	27.486922806070698	27.536892232426897	0.049969426356256	33569
33.669	50	20	0	0	panties	1107	20	0	stimuli\panties\panties_03s.jpg	2	-1	0	0	panties_03s.jpg	0	0.0	0	27.5869143215241	27.6368954507052	0.0499811291811056	33669
33.769	50	21	0	0	trigger	1713	21	0	stimuli\trigger\trigger_12s.jpg	11	-1	0	0	trigger_12s.jpg	0	0.0	0	27.686916808364895	27.736921587027602	0.0500047786626965	33769
33.869	50	22	0	0	patch	1125	22	0	stimuli\patch\patch_01b.jpg	0	-1	0	0	patch_01b.jpg	0	0.0	0	27.786944895226	27.8369238300947	0.0499789348687045	33869
33.969	50	23	0	0	marker	975	23	0	stimuli\marker\marker_02s.jpg	1	-1	0	0	marker_02s.jpg	0	0.0	0	27.8869461630238	27.9369131512358	0.0499669882119633	33969
34.069	50	24	0	0	humvee	813	24	0	stimuli\humvee\humvee_08s.jpg	7	-1	0	0	humvee_08s.jpg	0	0.0	0	27.9869527945993	28.0369039352518	0.0499511406524107	34069
34.169	50	25	0	0	ribbon	1308	25	0	stimuli\ribbon\ribbon_07s.jpg	6	-1	0	0	ribbon_07s.jpg	0	0.0	0	28.0869233424892	28.136902521131603	0.0499791786423884	34169
34.269	50	26	0	0	viewfinder	1763	26	0	stimuli\viewfinder\viewfinder_12s.jpg	11	-1	0	0	viewfinder_12s.jpg	0	0.0	0	28.186922903580104	28.2369079337223	0.0499850301421247	34269
34.369	50	27	0	0	charger	308	27	0	stimuli\charger\charger_11s.jpg	10	-1	0	0	charger_11s.jpg	0	0.0	0	28.2869283161708	28.336914809129702	0.0499864929588512	34369
34.469	50	28	0	0	dartboard	474	28	0	stimuli\dartboard\dartboard_07s.jpg	6	-1	0	0	dartboard_07s.jpg	0	0.0	0	28.3869310468435	28.4369187588454	0.0499877120018937	34469
34.569	50	29	0	0	refrigerator	1300	29	0	stimuli\refrigerator\refrigerator_02s.jpg	1	-1	0	0	refrigerator_02s.jpg	0	0.0	0	28.4869401165633	28.536935386655397	0.0499952700920403	34569
34.669	50	30	0	0	checkbook	310	30	0	stimuli\checkbook\checkbook_02s.jpg	1	-1	0	0	checkbook_02s.jpg	0	0.0	0	28.5869650338427	28.636946894461303	0.0499818606185727	34669
34.769	50	31	0	0	wallpaper	1777	31	0	stimuli\wallpaper\wallpaper_03s.jpg	2	-1	0	0	wallpaper_03s.jpg	0	0.0	0	28.686965814034902	28.736952550825702	0.0499867367907427	34769
34.869	50	32	0	0	odometer	1071	32	0	stimuli\odometer\odometer_11s.jpg	10	-1	0	0	odometer_11s.jpg	0	0.0	0	28.786968788481303	28.836946016701397	0.0499772282200865	34869
34.969	50	33	0	0	horse	798	33	0	stimuli\horse\horse_10s.jpg	9	-1	0	0	horse_10s.jpg	0	0.0	0	28.8869610353722	28.9369453340769	0.0499842987046577	34969
35.069	50	34	0	0	spool	1518	34	0	stimuli\spool\spool_10s.jpg	9	-1	0	0	spool_10s.jpg	0	0.0	0	28.9869683983852	29.0369390437845	0.0499706453992985	35069
35.169	50	35	0	0	apple_tree	31	35	0	stimuli\apple_tree\apple_tree_10s.jpg	9	-1	0	0	apple_tree_10s.jpg	0	0.0	0	29.086955037666502	29.136931778281003	0.0499767406145111	35169
35.269	50	36	0	0	scanner	1375	36	0	stimuli\scanner\scanner_10s.jpg	9	-1	0	0	scanner_10s.jpg	0	0.0	0	29.1869577683392	29.2369618155644	0.0500040472252294	35269
35.369	50	37	0	0	swan	1591	37	0	stimuli\swan\swan_08s.jpg	7	-1	0	0	swan_08s.jpg	0	0.0	0	29.286988293228198	29.336962595756603	0.0499743025284261	35369
35.469	50	38	0	0	birdhouse	131	38	0	stimuli\birdhouse\birdhouse_02s.jpg	1	-1	0	0	birdhouse_02s.jpg	0	0.0	0	29.3869878543774	29.436965814034902	0.0499779596575536	35469
35.569	50	39	0	0	chihuahua	326	39	0	stimuli\chihuahua\chihuahua_02s.jpg	1	-1	0	0	chihuahua_02s.jpg	0	0.0	0	29.4869864402572	29.5369675694383	0.0499811291811056	35569
35.669	50	40	0	0	stick	1552	40	0	stimuli\stick\stick_08s.jpg	7	-1	0	0	stick_08s.jpg	0	0.0	0	29.5869879518868	29.636970787716603	0.0499828358297236	35669
35.769	50	41	0	0	poker	1210	41	0	stimuli\poker\poker_10s.jpg	9	-1	0	0	poker_10s.jpg	0	0.0	0	29.686974347336196	29.7369752250379	0.0500008777016774	35769
35.869	50	42	0	0	bat1	87	42	0	stimuli\bat1\bat1_01b.jpg	0	-1	0	0	bat1_01b.jpg	0	0.0	0	29.7869948761072	29.8369742985815	0.04997942247428	35869
35.969	50	43	0	0	float	616	43	0	stimuli\float\float_02s.jpg	1	-1	0	0	float_02s.jpg	0	0.0	0	29.886996143905	29.9369611816364	0.0499650377314538	35969
36.069	50	44	0	0	swimsuit	1597	44	0	stimuli\swimsuit\swimsuit_02s.jpg	1	-1	0	0	swimsuit_02s.jpg	0	0.0	0	29.987004238355397	30.0369826856186	0.0499784472631291	36069
36.169	50	45	0	0	banana	63	45	0	stimuli\banana\banana_11s.jpg	10	-1	0	0	banana_11s.jpg	0	0.0	0	30.086988439492398	30.1369761515525	0.0499877120601013	36169
36.269	50	46	0	0	tortellini	1686	46	0	stimuli\tortellini\tortellini_05s.jpg	4	-1	0	0	tortellini_05s.jpg	0	0.0	0	30.187004092091197	30.236986684089104	0.0499825919978321	36269
36.369	50	47	0	0	wagon	1772	47	0	stimuli\wagon\wagon_08s.jpg	7	-1	0	0	wagon_08s.jpg	0	0.0	0	30.287010967498603	30.3369881957187	0.0499772282200865	36369
36.469	50	48	0	0	eggshell	551	48	0	stimuli\eggshell\eggshell_09s.jpg	8	-1	0	0	eggshell_09s.jpg	0	0.0	0	30.3869932181551	30.436990926391395	0.049997708236333004	36469
36.569	50	49	0	0	mannequin	968	49	0	stimuli\mannequin\mannequin_04s.jpg	3	-1	0	0	mannequin_04s.jpg	0	0.0	0	30.4870130154886	30.5369951198809	0.0499821043922566	36569
36.669	50	50	0	0	pom-pom	1218	50	0	stimuli\pom-pom\pom-pom_07s.jpg	6	-1	0	0	pom-pom_07s.jpg	0	0.0	0	30.586999410938002	30.6369802962872	0.0499808853492141	36669
36.769	50	51	0	0	slug	1472	51	0	stimuli\slug\slug_02s.jpg	1	-1	0	0	slug_02s.jpg	0	0.0	0	30.6870167701272	30.7369998497888	0.0499830796616152	36769
36.869	50	52	0	0	webcam	1799	52	0	stimuli\webcam\webcam_04s.jpg	3	-1	0	0	webcam_04s.jpg	0	0.0	0	30.7870177941513	30.8370030680671	0.0499852739158086	36869
36.969	50	53	0	0	hook1	793	53	0	stimuli\hook1\hook1_08s.jpg	7	-1	0	0	hook1_08s.jpg	0	0.0	0	30.8870280829142	30.9369882444735	0.0499601615592837	36969
37.069	50	54	0	0	sleeping_bag	1462	54	0	stimuli\sleeping_bag\sleeping_bag_10s.jpg	9	-1	0	0	sleeping_bag_10s.jpg	0	0.0	0	30.9870298383175	31.0370065789321	0.0499767406145111	37069
37.169	50	55	0	0	tadpole	1614	55	0	stimuli\tadpole\tadpole_06s.jpg	5	-1	0	0	tadpole_06s.jpg	0	0.0	0	31.087005506153197	31.1369861477287	0.0499806415755302	37169
37.269	50	56	0	0	kite	874	56	0	stimuli\kite\kite_09n.jpg	8	-1	0	0	kite_09n.jpg	0	0.0	0	31.1870111625176	31.2369961926597	0.0499850301421247	37269
37.369	50	57	0	0	hovercraft	808	57	0	stimuli\hovercraft\hovercraft_04s.jpg	3	-1	0	0	hovercraft_04s.jpg	0	0.0	0	31.2870341293747	31.3370118452003	0.049977715825661996	37369
37.469	50	58	0	0	soda_fountain	1491	58	0	stimuli\soda_fountain\soda_fountain_08s.jpg	7	-1	0	0	soda_fountain_08s.jpg	0	0.0	0	31.387036372383598	31.4370140882675	0.0499777158838697	37469
37.569	50	59	0	0	telescope	1640	59	0	stimuli\telescope\telescope_08n.jpg	7	-1	0	0	telescope_08n.jpg	0	0.0	0	31.4870269126259	31.537021207448603	0.0499942948226817	37569
37.669	50	60	0	0	pine_tree	1181	60	0	stimuli\pine_tree\pine_tree_11s.jpg	10	-1	0	1	pine_tree_11s.jpg	0	0.0	0	31.587025254731998	31.6370239381213	0.0499986833892763	37669
37.769	50	61	0	0	leek	910	61	0	stimuli\leek\leek_05s.jpg	4	-1	0	0	leek_05s.jpg	0	0.0	0	31.687025059654797	31.7370249621454	0.0499999024905264	37769
37.869	50	62	0	0	cardinal	274	62	0	stimuli\cardinal\cardinal_04s.jpg	3	-1	0	0	cardinal_04s.jpg	0	0.0	0	31.787042906507804	31.837010138551697	0.0499672320438549	37869
37.969	50	63	0	0	handle	748	63	0	stimuli\handle\handle_11s.jpg	10	-1	0	0	handle_11s.jpg	0	0.0	0	31.887033202859996	31.937012137786997	0.0499789349269122	37969
38.069	50	64	0	0	brick	199	64	0	stimuli\brick\brick_12s.jpg	11	-1	0	0	brick_12s.jpg	1	0.392170262639411	1	31.987036664970198	32.0370331541053	0.0499964891350828	38069
38.169	50	65	0	0	barcode	73	65	0	stimuli\barcode\barcode_07s.jpg	6	-1	0	0	barcode_07s.jpg	0	0.0	0	32.0870523175108	32.1370339342975	0.0499816167866811	38169
38.269	50	66	0	0	cart	278	66	0	stimuli\cart\cart_05s.jpg	4	-1	0	0	cart_05s.jpg	0	0.0	0	32.1870306672645	32.2370078954846	0.0499772282200865	38269
38.369	50	67	0	0	mold2	1013	67	0	stimuli\mold2\mold2_12s.jpg	11	-1	0	0	mold2_12s.jpg	0	0.0	0	32.287052658852204	32.3370320813847	0.0499794225324877	38369
38.469	50	68	0	0	crossbow	444	68	0	stimuli\crossbow\crossbow_10s.jpg	9	-1	0	0	crossbow_10s.jpg	0	0.0	0	32.387054901919306	32.4370360311004	0.0499811291811056	38469
38.569	50	69	0	0	duct_tape	528	69	0	stimuli\duct_tape\duct_tape_03s.jpg	2	-1	0	0	duct_tape_03s.jpg	0	0.0	0	32.4870581201976	32.537038761714896	0.0499806415173225	38569
38.669	50	70	0	0	scarecrow	1376	70	0	stimuli\scarecrow\scarecrow_01b.jpg	0	-1	0	0	scarecrow_01b.jpg	0	0.0	0	32.5870447594207	32.6370246695587	0.0499799101380631	38669
38.769	50	71	0	0	lampshade	893	71	0	stimuli\lampshade\lampshade_02s.jpg	1	-1	0	0	lampshade_02s.jpg	0	0.0	0	32.6870960081578	32.7370230116649	0.0499270035070367	38769
38.869	50	72	0	0	sweet_potato	1595	72	0	stimuli\sweet_potato\sweet_potato_08s.jpg	7	-1	0	0	sweet_potato_08s.jpg	0	0.0	0	32.7870370550663	32.837018671853	0.0499816167866811	38869
38.969	50	73	0	0	ramp	1283	73	0	stimuli\ramp\ramp_09s.jpg	8	-1	0	0	ramp_09s.jpg	0	0.0	0	32.8870419799932	32.9370231091743	0.0499811291811056	38969
39.069	50	74	0	0	valve	1751	74	0	stimuli\valve\valve_04s.jpg	3	-1	0	0	valve_04s.jpg	0	0.0	0	32.9870786001557	33.0370531464578	0.049974546302110005	39069
39.169	50	75	0	0	whipped_cream	1810	75	0	stimuli\whipped_cream\whipped_cream_07s.jpg	6	-1	0	0	whipped_cream_07s.jpg	0	0.0	0	33.087057681346806	33.1370246695587	0.0499669882119633	39169
39.269	50	76	0	0	kangaroo	862	76	0	stimuli\kangaroo\kangaroo_11s.jpg	10	-1	0	0	kangaroo_11s.jpg	0	0.0	0	33.1870411510463	33.2370315449662	0.0499903939198703	39269
39.369	50	77	0	0	mulch	1038	77	0	stimuli\mulch\mulch_07s.jpg	6	-1	0	0	mulch_07s.jpg	0	0.0	0	33.2870538778952	33.3370320813847	0.0499782034894451	39369
39.469	50	78	0	0	treadmill	1706	78	0	stimuli\treadmill\treadmill_04s.jpg	3	-1	0	0	treadmill_04s.jpg	0	0.0	0	33.38705392665	33.4370382253546	0.0499842987046577	39469
39.569	50	79	0	0	honeypot	790	79	0	stimuli\honeypot\honeypot_10s.jpg	9	-1	0	0	honeypot_10s.jpg	0	0.0	0	33.487057632592	33.5370372988982	0.0499796663061716	39569
39.669	50	80	0	0	pillbox	1175	80	0	stimuli\pillbox\pillbox_10s.jpg	9	-1	0	0	pillbox_10s.jpg	0	0.0	0	33.587057681346806	33.6370395419071	0.049981860560364993	39669
39.769	50	81	0	0	groundhog	718	81	0	stimuli\groundhog\groundhog_08s.jpg	7	-1	0	0	groundhog_08s.jpg	0	0.0	0	33.6870772348484	33.7370705544599	0.0499933196115308	39769
39.869	50	82	0	0	pacifier	1093	82	0	stimuli\pacifier\pacifier_08s.jpg	7	-1	0	0	pacifier_08s.jpg	0	0.0	0	33.7870943502639	33.8370698717772	0.0499755215132609	39869
39.969	50	83	0	0	platypus	1198	83	0	stimuli\platypus\platypus_03s.jpg	2	-1	0	0	platypus_03s.jpg	0	0.0	0	33.8870922047063	33.9370838176692	0.0499916129629128	39969
40.069	50	84	0	0	ivy	834	84	0	stimuli\ivy\ivy_07s.jpg	6	-1	0	0	ivy_07s.jpg	0	0.0	0	33.98709883634	34.0370775273768	0.049978691036812996	40069
40.169	50	85	0	0	plastic_film	1196	85	0	stimuli\plastic_film\plastic_film_01b.jpg	0	-1	0	0	plastic_film_01b.jpg	0	0.0	0	34.0870864508324	34.137080989486996	0.0499945386545733	40169
40.269	50	86	0	0	dashboard	475	86	0	stimuli\dashboard\dashboard_01b.jpg	0	-1	0	0	dashboard_01b.jpg	0	0.0	0	34.187102103373	34.2370903029805	0.0499881996074691	40269
40.369	50	87	0	0	golf_cart	689	87	0	stimuli\golf_cart\golf_cart_11s.jpg	10	-1	0	0	golf_cart_11s.jpg	0	0.0	0	34.2870867921738	34.337082793703296	0.0499960015295073	40369
40.469	50	88	0	0	seahorse	1396	88	0	stimuli\seahorse\seahorse_08s.jpg	7	-1	0	0	seahorse_08s.jpg	0	0.0	0	34.3871039075311	34.4371069795452	0.0500030720140785	40469
40.569	50	89	0	0	balance_beam	58	89	0	stimuli\balance_beam\balance_beam_04s.jpg	3	-1	0	0	balance_beam_04s.jpg	0	0.0	0	34.4871081010788	34.5371131235152	0.0500050224363804	40569
40.669	50	90	0	0	vase	1753	90	0	stimuli\vase\vase_05s.jpg	4	-1	0	0	vase_05s.jpg	0	0.0	0	34.5871103441459	34.6370761133148	0.0499657691689208	40669
40.769	50	91	0	0	fast_food	572	91	0	stimuli\fast_food\fast_food_09s.jpg	8	-1	0	0	fast_food_09s.jpg	0	0.0	0	34.687096983369	34.7370937163359	0.0499967329669744	40769
40.869	50	92	0	0	xylophone	1843	92	0	stimuli\xylophone\xylophone_06s.jpg	5	-1	0	0	xylophone_06s.jpg	0	0.0	0	34.7871162930387	34.837080355559	0.0499640625203028	40869
40.969	50	93	0	0	scalpel	1374	93	0	stimuli\scalpel\scalpel_11s.jpg	10	-1	0	0	scalpel_11s.jpg	0	0.0	0	34.887118292273996	34.9371069795452	0.0499886872712523	40969
41.069	50	94	0	0	shoe_polish	1424	94	0	stimuli\shoe_polish\shoe_polish_11s.jpg	10	-1	0	0	shoe_polish_11s.jpg	0	0.0	0	34.9871239486965	35.0371016645222	0.049977715825661996	41069
41.169	50	95	0	0	chipmunk	334	95	0	stimuli\chipmunk\chipmunk_12s.jpg	11	-1	0	0	chipmunk_12s.jpg	0	0.0	0	35.087107418396	35.1370939113549	0.0499864929588512	41169
41.269	50	96	0	0	shorts	1430	96	0	stimuli\shorts\shorts_02s.jpg	1	-1	0	0	shorts_02s.jpg	0	0.0	0	35.1871194138075	35.2370978610707	0.0499784472631291	41269
41.369	50	97	0	0	gearshift	668	97	0	stimuli\gearshift\gearshift_05s.jpg	4	-1	0	0	gearshift_05s.jpg	0	0.0	0	35.2871228759177	35.3371003479697	0.0499774720519781	41369
41.469	50	98	0	0	pantsuit	1109	98	0	stimuli\pantsuit\pantsuit_03s.jpg	2	-1	0	0	pantsuit_03s.jpg	0	0.0	0	35.387120730418204	35.4371040538535	0.0499833234352991	41469
41.569	50	99	0	0	pigeon	1171	99	0	stimuli\pigeon\pigeon_07s.jpg	6	-1	0	0	pigeon_07s.jpg	0	0.0	0	35.4871078572469	35.537090449302895	0.0499825920560397	41569
41.669	50	100	0	0	piano	1165	100	0	stimuli\piano\piano_04n.jpg	3	-1	0	0	piano_04n.jpg	0	0.0	0	35.587135212670496	35.6371178046684	0.0499825919978321	41669
41.769	50	101	0	0	buggy	213	101	0	stimuli\buggy\buggy_07s.jpg	6	-1	0	0	buggy_07s.jpg	0	0.0	0	35.6871411128668	35.7371198039036	0.049978691036812996	41769
41.869	50	102	0	0	sledgehammer	1461	102	0	stimuli\sledgehammer\sledgehammer_12s.jpg	11	-1	0	0	sledgehammer_12s.jpg	0	0.0	0	35.787126289214896	35.837104005098794	0.0499777158838697	41869
41.969	50	103	0	0	rust	1342	103	0	stimuli\rust\rust_01b.jpg	0	-1	0	1	rust_01b.jpg	0	0.0	0	35.8871412103763	35.937124533811605	0.0499833234352991	41969
42.069	50	104	0	0	crank	432	104	0	stimuli\crank\crank_11s.jpg	10	-1	0	0	crank_11s.jpg	0	0.0	0	35.987147841951796	36.0371270206524	0.0499791787005961	42069
42.169	50	105	0	0	record_player	1296	105	0	stimuli\record_player\record_player_08s.jpg	7	-1	0	0	record_player_08s.jpg	0	0.0	0	36.087120827927706	36.1371009818395	0.049980153911747004	42169
42.269	50	106	0	0	trapdoor	1703	106	0	stimuli\trapdoor\trapdoor_03s.jpg	2	-1	0	0	trapdoor_03s.jpg	1	0.34187949582701505	1	36.187117950990796	36.237100786820506	0.0499828358297236	42269
42.369	50	107	0	0	pill	1174	107	0	stimuli\pill\pill_10s.jpg	9	-1	0	0	pill_10s.jpg	0	0.0	0	36.2871248263982	36.337103517435004	0.049978691036812996	42369
42.469	50	108	0	0	egg	546	108	0	stimuli\egg\egg_10s.jpg	9	-1	0	0	egg_10s.jpg	0	0.0	0	36.3871241437155	36.437107223377105	0.0499830796616152	42469
42.569	50	109	0	0	file1	583	109	0	stimuli\file1\file1_07s.jpg	6	-1	0	0	file1_07s.jpg	0	0.0	0	36.4871276058257	36.5371084911749	0.0499808853492141	42569
42.669	50	110	0	0	candlestick	254	110	0	stimuli\candlestick\candlestick_09s.jpg	8	-1	0	0	candlestick_09s.jpg	0	0.0	0	36.5871288736234	36.6371143913711	0.0499855177477002	42669
42.769	50	111	0	0	birdbath	129	111	0	stimuli\birdbath\birdbath_12s.jpg	11	-1	0	0	birdbath_12s.jpg	0	0.0	0	36.6871337985503	36.737146379135105	0.0500125805847347	42769
42.869	50	112	0	0	meat	987	112	0	stimuli\meat\meat_10s.jpg	9	-1	0	0	meat_10s.jpg	0	0.0	0	36.787163835833795	36.8371427707607	0.0499789349269122	42869
42.969	50	113	0	0	wire	1828	113	0	stimuli\wire\wire_02s.jpg	1	-1	0	0	wire_02s.jpg	0	0.0	0	36.8871582769789	36.9371416004724	0.0499833234935068	42969
43.069	50	114	0	0	meatloaf	990	114	0	stimuli\meatloaf\meatloaf_01s.jpg	0	-1	0	0	meatloaf_01s.jpg	0	0.0	0	36.9871617390891	37.037145306356294	0.0499835672671907	43069
43.169	50	115	0	0	box	181	115	0	stimuli\box\box_06s.jpg	5	-1	0	0	box_06s.jpg	0	0.0	0	37.0871559364605	37.137134627497296	0.049978691036812996	43169
43.269	50	116	0	0	grapevine	704	116	0	stimuli\grapevine\grapevine_01b.jpg	0	-1	0	0	grapevine_01b.jpg	0	0.0	0	37.1871898747049	37.2371597886086	0.0499699139036238	43269
43.369	50	117	0	0	telephone_pole	1639	117	0	stimuli\telephone_pole\telephone_pole_11s.jpg	10	-1	0	0	telephone_pole_11s.jpg	0	0.0	0	37.287163348228205	37.337147403101	0.0499840548727661	43369
43.469	50	118	0	0	blanket	136	118	0	stimuli\blanket\blanket_09s.jpg	8	-1	0	0	blanket_09s.jpg	0	0.0	0	37.387167297944	37.437162568036	0.0499952700920403	43469
43.569	50	119	0	0	jar	840	119	0	stimuli\jar\jar_03s.jpg	2	-1	0	0	jar_03s.jpg	0	0.0	0	37.4871912400122	37.537162373017104	0.049971133004874	43569
43.669	50	120	0	0	wineglass	1826	120	0	stimuli\wineglass\wineglass_01b.jpg	0	-1	0	0	wineglass_01b.jpg	0	0.0	0	37.5871695897658	37.6371536446386	0.0499840548727661	43669
43.769	50	121	0	0	ashtray	41	121	0	stimuli\ashtray\ashtray_04s.jpg	3	-1	0	0	ashtray_04s.jpg	0	0.0	0	37.6871869489551	37.7371680781362	0.0499811291811056	43769
43.869	50	122	0	0	fishbowl	601	122	0	stimuli\fishbowl\fishbowl_04s.jpg	3	-1	0	0	fishbowl_04s.jpg	0	0.0	0	37.7871782205766	37.837159105984	0.0499808854074217	43869
43.969	50	123	0	0	weasel	1797	123	0	stimuli\weasel\weasel_11n.jpg	10	-1	0	0	weasel_11n.jpg	0	0.0	0	37.887194116949104	37.9371740270872	0.0499799101380631	43969
44.069	50	124	0	0	stroller	1574	124	0	stimuli\stroller\stroller_02s.jpg	1	-1	0	0	stroller_02s.jpg	0	0.0	0	37.987193921930206	38.0371760263224	0.0499821043922566	44069
44.169	50	125	0	0	jewelry	850	125	0	stimuli\jewelry\jewelry_06s.jpg	5	-1	0	0	jewelry_06s.jpg	0	0.0	0	38.08718226786	38.1371768065146	0.0499945386545733	44169
44.269	50	126	0	0	calzone	243	126	0	stimuli\calzone\calzone_05s.jpg	4	-1	0	0	calzone_05s.jpg	0	0.0	0	38.1872023089672	38.23718221904711	0.0499799100798555	44269
44.369	50	127	0	0	bathrobe	90	127	0	stimuli\bathrobe\bathrobe_04s.jpg	3	-1	0	0	bathrobe_04s.jpg	0	0.0	0	38.2871862663305	38.3371837306768	0.0499974643462338	44369
44.469	50	128	0	0	pretzel	1239	128	0	stimuli\pretzel\pretzel_08s.jpg	7	-1	0	0	pretzel_08s.jpg	0	0.0	0	38.3871894846088	38.4371867051814	0.0499972205725498	44469
44.569	50	129	0	0	puppy	1258	129	0	stimuli\puppy\puppy_11s.jpg	10	-1	0	0	puppy_11s.jpg	0	0.0	0	38.4872102571535	38.5371867539361	0.0499764967826195	44569
44.669	50	130	0	0	stockings	1559	130	0	stimuli\stockings\stockings_02s.jpg	1	-1	0	0	stockings_02s.jpg	0	0.0	0	38.587214450642904	38.6371921664686	0.049977715825661996	44669
44.769	50	131	0	0	baton1	92	131	0	stimuli\baton1\baton1_05s.jpg	4	-1	0	0	baton1_05s.jpg	0	0.0	0	38.6872140117921	38.7371946533676	0.0499806415755302	44769
44.869	50	132	0	0	hedge	773	132	0	stimuli\hedge\hedge_11s.jpg	10	-1	0	0	hedge_11s.jpg	0	0.0	0	38.7871991881984	38.8371803173795	0.0499811291811056	44869
44.969	50	133	0	0	sloth	1471	133	0	stimuli\sloth\sloth_01b.jpg	0	-1	0	0	sloth_01b.jpg	0	0.0	0	38.887203137914206	38.937202065135395	0.0499989272211678	44969
45.069	50	134	0	0	playpen	1200	134	0	stimuli\playpen\playpen_10s.jpg	9	-1	0	0	playpen_10s.jpg	0	0.0	0	38.9872243980644	39.037202113890096	0.049977715825661996	45069
45.169	50	135	0	0	glass	677	135	0	stimuli\glass\glass_10s.jpg	9	-1	0	0	glass_10s.jpg	0	0.0	0	39.087222740170496	39.1372026503086	0.0499799101380631	45169
45.269	50	136	0	0	wrapping_paper	1838	136	0	stimuli\wrapping_paper\wrapping_paper_09s.jpg	8	-1	0	0	wrapping_paper_09s.jpg	0	0.0	0	39.1872303470154	39.237209281884105	0.0499789348687045	45269
45.369	50	137	0	0	fan	571	137	0	stimuli\fan\fan_09s.jpg	8	-1	0	0	fan_09s.jpg	0	0.0	0	39.2872279576841	39.337208843033295	0.0499808853492141	45369
45.469	50	138	0	0	muffin	1035	138	0	stimuli\muffin\muffin_07n.jpg	6	-1	0	0	muffin_07n.jpg	0	0.0	0	39.387230200693004	39.4372164498782	0.0499862491851673	45469
45.569	50	139	0	0	dial	483	139	0	stimuli\dial\dial_06s.jpg	5	-1	0	0	dial_06s.jpg	0	0.0	0	39.4872358571156	39.537212841503795	0.049976984388195	45569
45.669	50	140	0	0	water_cooler	1788	140	0	stimuli\water_cooler\water_cooler_07s.jpg	6	-1	0	0	water_cooler_07s.jpg	0	0.0	0	39.587235905870294	39.6372150845709	0.0499791787005961	45669
45.769	50	141	0	0	fork	634	141	0	stimuli\fork\fork_08s.jpg	7	-1	0	0	fork_08s.jpg	0	0.0	0	39.6872398555861	39.7372058685869	0.0499660130008124	45769
45.869	50	142	0	0	aloe	14	142	0	stimuli\aloe\aloe_02s.jpg	1	-1	0	0	aloe_02s.jpg	0	0.0	0	39.7872401481145	39.8372110373457	0.0499708892311901	45869
45.969	50	143	0	0	bolo_tie	157	143	0	stimuli\bolo_tie\bolo_tie_01b.jpg	0	-1	0	0	bolo_tie_01b.jpg	0	0.0	0	39.8872440978303	39.9372123051435	0.0499682073132135	45969
46.069	50	144	0	0	bungee	221	144	0	stimuli\bungee\bungee_05s.jpg	4	-1	0	0	bungee_05s.jpg	0	0.0	0	39.987255361804294	40.0372330776881	0.0499777158838697	46069
46.169	50	145	0	0	possum	1228	145	0	stimuli\possum\possum_08s.jpg	7	-1	0	0	possum_08s.jpg	0	0.0	0	40.087247852527106	40.137215815950206	0.0499679634231143	46169
46.269	50	146	0	0	paint	1096	146	0	stimuli\paint\paint_07s.jpg	6	-1	0	0	paint_07s.jpg	0	0.0	0	40.187248632719296	40.2372197656659	0.0499711329466663	46269
46.369	50	147	0	0	banana_peel	64	147	0	stimuli\banana_peel\banana_peel_10s.jpg	9	-1	0	0	banana_peel_10s.jpg	0	0.0	0	40.287252094771205	40.3372351744329	0.0499830796616152	46369
46.469	50	148	0	0	coop	404	148	0	stimuli\coop\coop_11s.jpg	10	-1	0	0	coop_11s.jpg	0	0.0	0	40.3872392216581	40.4372366860625	0.0499974644044414	46469
46.569	50	149	0	0	jack	835	149	0	stimuli\jack\jack_01b.jpg	0	-1	0	0	jack_01b.jpg	0	0.0	0	40.4872592627653	40.537224056723105	0.0499647939577699	46569
46.669	50	150	0	0	firewood	597	150	0	stimuli\firewood\firewood_08s.jpg	7	-1	0	0	firewood_08s.jpg	0	0.0	0	40.5872605305631	40.637242147349795	0.0499816167866811	46669
46.769	50	151	0	0	pulley	1250	151	0	stimuli\pulley\pulley_07s.jpg	6	-1	0	0	pulley_07s.jpg	0	0.0	0	40.687263505067705	40.737244634248796	0.0499811291811056	46769
46.869	50	152	0	0	earplug	539	152	0	stimuli\earplug\earplug_08s.jpg	7	-1	0	0	earplug_08s.jpg	0	0.0	0	40.787266967119606	40.8372312734718	0.0499643063521944	46869
46.969	50	153	0	0	chest1	319	153	0	stimuli\chest1\chest1_05s.jpg	4	-1	0	0	chest1_05s.jpg	0	0.0	0	40.8872667721007	40.937251070805395	0.0499842987046577	46969
47.069	50	154	0	0	shears	1412	154	0	stimuli\shears\shears_10s.jpg	9	-1	0	0	shears_10s.jpg	0	0.0	0	40.98727437894561	41.0372367348173	0.0499623558716848	47069
47.169	50	155	0	0	bassoon	86	155	0	stimuli\bassoon\bassoon_08s.jpg	7	-1	0	0	bassoon_08s.jpg	0	0.0	0	41.0872561419965	41.13723434548589	0.0499782034894451	47169
47.269	50	156	0	0	gorilla	695	156	0	stimuli\gorilla\gorilla_12s.jpg	11	-1	0	0	gorilla_12s.jpg	0	0.0	0	41.1872549717082	41.237244634248796	0.0499896625406109	47269
47.369	50	157	0	0	french_horn	642	157	0	stimuli\french_horn\french_horn_12s.jpg	11	-1	0	0	french_horn_12s.jpg	0	0.0	0	41.2872467309935	41.33724151348	0.0499947824864648	47369
47.469	50	158	0	0	hairpin	737	158	0	stimuli\hairpin\hairpin_06s.jpg	5	-1	0	0	hairpin_06s.jpg	0	0.0	0	41.3872609206592	41.4372671621968	0.0500062415376306	47469
47.569	50	159	0	0	cassette	283	159	0	stimuli\cassette\cassette_11n.jpg	10	-1	0	0	cassette_11n.jpg	0	0.0	0	41.4872860817704	41.537265260471	0.0499791787005961	47569
47.669	50	160	0	0	trumpet	1721	160	0	stimuli\trumpet\trumpet_09s.jpg	8	-1	0	0	trumpet_09s.jpg	0	0.0	0	41.5872883248376	41.637252631189796	0.0499643063521944	47669
47.769	50	161	0	0	hearse	771	161	0	stimuli\hearse\hearse_12s.jpg	11	-1	0	0	hearse_12s.jpg	0	0.0	0	41.6872891050298	41.7372704779846	0.0499813729547895	47769
47.869	50	162	0	0	locket	942	162	0	stimuli\locket\locket_08s.jpg	7	-1	0	1	locket_08s.jpg	0	0.0	0	41.787289885222	41.837273940094704	0.0499840548727661	47869
47.969	50	163	0	0	notepad	1065	163	0	stimuli\notepad\notepad_04s.jpg	3	-1	0	0	notepad_04s.jpg	0	0.0	0	41.8872774997144	41.937273988849505	0.0499964891350828	47969
48.069	50	164	0	0	walker2	1774	164	0	stimuli\walker2\walker2_12s.jpg	11	-1	0	0	walker2_12s.jpg	0	0.0	0	41.9873029045993	42.0372664795141	0.0499635749147274	48069
48.169	50	165	0	0	robot	1318	165	0	stimuli\robot\robot_07s.jpg	6	-1	0	0	robot_07s.jpg	1	0.34190850914456	1	42.0872841801029	42.1372821320547	0.0499979519518092	48169
48.269	50	166	0	0	pomegranate	1219	166	0	stimuli\pomegranate\pomegranate_08s.jpg	7	-1	0	0	pomegranate_08s.jpg	0	0.0	0	42.1873000764172	42.237286569434204	0.0499864930170588	48269
48.369	50	167	0	0	seafood	1394	167	0	stimuli\seafood\seafood_10s.jpg	9	-1	0	0	seafood_10s.jpg	0	0.0	0	42.2872867156984	42.337284667708396	0.0499979520100169	48369
48.469	50	168	0	0	penguin	1145	168	0	stimuli\penguin\penguin_12s.jpg	11	-1	0	0	penguin_12s.jpg	0	0.0	0	42.3873045625514	42.4372876421548	0.0499830796034075	48469
48.569	50	169	0	0	buckle	210	169	0	stimuli\buckle\buckle_11s.jpg	10	-1	0	0	buckle_11s.jpg	0	0.0	0	42.4873131446075	42.5372891537845	0.049976009177044006	48569
48.669	50	170	0	0	racket	1270	170	0	stimuli\racket\racket_10s.jpg	9	-1	0	0	racket_10s.jpg	0	0.0	0	42.587295151490295	42.6372801816324	0.0499850301421247	48669
48.769	50	171	0	0	timer	1661	171	0	stimuli\timer\timer_02s.jpg	1	-1	0	0	timer_02s.jpg	0	0.0	0	42.6873000764172	42.737279742723295	0.0499796663061716	48769
48.869	50	172	0	0	wallet	1776	172	0	stimuli\wallet\wallet_08s.jpg	7	-1	0	0	wallet_08s.jpg	0	0.0	0	42.7872979309177	42.8372732086573	0.049975277739577	48869
48.969	50	173	0	0	emerald	555	173	0	stimuli\emerald\emerald_07s.jpg	6	-1	0	0	emerald_07s.jpg	0	0.0	0	42.887317728193004	42.9373003202491	0.0499825920560397	48969
49.069	50	174	0	0	knot	883	174	0	stimuli\knot\knot_10s.jpg	9	-1	0	0	knot_10s.jpg	0	0.0	0	42.9873207026976	43.0373037823592	0.0499830796616152	49069
49.169	50	175	0	0	reel	1299	175	0	stimuli\reel\reel_09s.jpg	8	-1	0	0	reel_09s.jpg	0	0.0	0	43.087321726663504	43.137287252058705	0.0499655253952369	49169
49.269	50	176	0	0	snack	1475	176	0	stimuli\snack\snack_10s.jpg	9	-1	0	0	snack_10s.jpg	0	0.0	0	43.18732713925421	43.2373107065214	0.0499835672671907	49269
49.369	50	177	0	0	slime	1465	177	0	stimuli\slime\slime_06s.jpg	5	-1	0	0	slime_06s.jpg	0	0.0	0	43.2873276756145	43.337294663884705	0.049966988270170994	49369
49.469	50	178	0	0	dice	486	178	0	stimuli\dice\dice_05s.jpg	4	-1	0	0	dice_05s.jpg	0	0.0	0	43.38735917577289	43.437312998343295	0.0499538225703873	49469
49.569	50	179	0	0	walnut	1778	179	0	stimuli\walnut\walnut_10s.jpg	9	-1	0	0	walnut_10s.jpg	0	0.0	0	43.487333624565494	43.5373137785355	0.0499801539699547	49569
49.669	50	180	0	0	lantern	895	180	0	stimuli\lantern\lantern_07s.jpg	6	-1	0	0	lantern_07s.jpg	0	0.0	0	43.587276378180796	43.6373026120709	0.0500262338900939	49669
49.769	50	181	0	0	washing_machine	1784	181	0	stimuli\washing_machine\washing_machine_06s.jpg	5	-1	0	0	washing_machine_06s.jpg	0	0.0	0	43.6873237258988	43.7373319179169	0.0500081920181401	49769
49.869	50	182	0	0	nutcracker	1067	182	0	stimuli\nutcracker\nutcracker_05s.jpg	4	-1	0	0	nutcracker_05s.jpg	0	0.0	0	43.7873371841852	43.837320751452395	0.0499835672671907	49869
49.969	50	183	0	0	flute	620	183	0	stimuli\flute\flute_04s.jpg	3	-1	0	0	flute_04s.jpg	0	0.0	0	43.887352836725796	43.9373254326056	0.0499725958798081	49969
50.069	50	184	0	0	pasta	1123	184	0	stimuli\pasta\pasta_02s.jpg	1	-1	0	0	pasta_02s.jpg	0	0.0	0	43.9873489845777	44.0373276756145	0.049978691036812996	50069
50.169	50	185	0	0	gopher	694	185	0	stimuli\gopher\gopher_10s.jpg	9	-1	0	0	gopher_10s.jpg	0	0.0	0	44.087346351414496	44.1373421091121	0.0499957576976158	50169
50.269	50	186	0	0	anklet	23	186	0	stimuli\anklet\anklet_09s.jpg	8	-1	0	0	anklet_09s.jpg	0	0.0	0	44.187365904916106	44.2373345998349	0.049968694918789	50269
50.369	50	187	0	0	weather_vane	1798	187	0	stimuli\weather_vane\weather_vane_12s.jpg	11	-1	0	0	weather_vane_12s.jpg	0	0.0	0	44.2873408413143	44.337319532409296	0.0499786910950206	50369
50.469	50	188	0	0	tuning_fork	1728	188	0	stimuli\tuning_fork\tuning_fork_11s.jpg	10	-1	0	0	tuning_fork_11s.jpg	0	0.0	0	44.38733333203711	44.437338110641605	0.0500047786044888	50469
50.569	50	189	0	0	pipe2	1187	189	0	stimuli\pipe2\pipe2_02s.jpg	1	-1	0	0	pipe2_02s.jpg	0	0.0	0	44.4873628816567	44.5373420603573	0.0499791787005961	50569
50.669	50	190	0	0	frog	644	190	0	stimuli\frog\frog_03s.jpg	2	-1	0	0	frog_03s.jpg	0	0.0	0	44.587342938117196	44.6373443034245	0.0500013653072529	50669
50.769	50	191	0	0	turf	1732	191	0	stimuli\turf\turf_10s.jpg	9	-1	0	0	turf_10s.jpg	0	0.0	0	44.687367123959106	44.737346058827804	0.0499789348687045	50769
50.869	50	192	0	0	towel	1692	192	0	stimuli\towel\towel_10s.jpg	9	-1	0	0	towel_10s.jpg	0	0.0	0	44.787348155630795	44.8373478142894	0.0499996586586349	50869
50.969	50	193	0	0	quesadilla	1261	193	0	stimuli\quesadilla\quesadilla_09s.jpg	8	-1	0	0	quesadilla_09s.jpg	0	0.0	0	44.8873689281754	44.9373507887358	0.049981860560364993	50969
51.069	50	194	0	0	pocket_watch	1206	194	0	stimuli\pocket_watch\pocket_watch_10s.jpg	9	-1	0	0	pocket_watch_10s.jpg	0	0.0	0	44.987371658789904	45.037351081322406	0.0499794225324877	51069
51.169	50	195	0	0	recliner	1294	195	0	stimuli\recliner\recliner_09s.jpg	8	-1	0	0	recliner_09s.jpg	0	0.0	0	45.0873743894626	45.137353811995105	0.0499794225324877	51169
51.269	50	196	0	0	cardboard	272	196	0	stimuli\cardboard\cardboard_10s.jpg	9	-1	0	0	cardboard_10s.jpg	0	0.0	0	45.18737663252979	45.237359224527594	0.0499825919978321	51269
51.369	50	197	0	0	bike	123	197	0	stimuli\bike\bike_05s.jpg	4	-1	0	0	bike_05s.jpg	0	0.0	0	45.2873652222333	45.3373461076408	0.0499808854074217	51369
51.469	50	198	0	0	recorder	1297	198	0	stimuli\recorder\recorder_07s.jpg	6	-1	0	0	recorder_07s.jpg	0	0.0	0	45.38735820056171	45.437362735392504	0.0500045348308049	51469
51.569	50	199	0	0	raspberry	1284	199	0	stimuli\raspberry\raspberry_03n.jpg	2	-1	0	0	raspberry_03n.jpg	0	0.0	0	45.4873899444938	45.5373652222333	0.049975277739577	51569
51.669	50	200	0	0	glove	680	200	0	stimuli\glove\glove_04s.jpg	3	-1	0	0	glove_04s.jpg	0	0.0	0	45.5873712199391	45.637336501502396	0.0499652815633453	51669
51.769	50	201	0	0	machine_gun	954	201	0	stimuli\machine_gun\machine_gun_09s.jpg	8	-1	0	0	machine_gun_09s.jpg	0	0.0	0	45.687389554397704	45.737371658789904	0.0499821043922566	51769
51.869	50	202	0	0	guinea_pig	722	202	0	stimuli\guinea_pig\guinea_pig_04s.jpg	3	-1	0	0	guinea_pig_04s.jpg	0	0.0	0	45.78737765649571	45.83735707902821	0.0499794225324877	51869
51.969	50	203	0	0	screwdriver	1391	203	0	stimuli\screwdriver\screwdriver_11s.jpg	10	-1	0	0	screwdriver_11s.jpg	0	0.0	0	45.8874086690485	45.9373771201354	0.0499684510868974	51969
52.069	50	204	0	0	thread	1651	204	0	stimuli\thread\thread_05s.jpg	4	-1	0	1	thread_05s.jpg	0	0.0	0	45.987382386403596	46.0373608336668	0.0499784472631291	52069
52.169	50	205	0	0	pudding	1246	205	0	stimuli\pudding\pudding_04s.jpg	3	-1	0	0	pudding_04s.jpg	0	0.0	0	46.0873992580455	46.1373652709881	0.0499660129426047	52169
52.269	50	206	0	0	sink	1447	206	0	stimuli\sink\sink_05s.jpg	4	-1	0	0	sink_05s.jpg	0	0.0	0	46.18739906296829	46.2373840931104	0.0499850301421247	52269
52.369	50	207	0	0	trombone	1716	207	0	stimuli\trombone\trombone_06s.jpg	5	-1	0	0	trombone_06s.jpg	1	0.35016242571873607	1	46.287409351731206	46.337371463771	0.0499621120397933	52369
52.469	50	208	0	0	speedboat	1511	208	0	stimuli\speedboat\speedboat_10s.jpg	9	-1	0	0	speedboat_10s.jpg	0	0.0	0	46.3874120824039	46.43739028583511	0.0499782034312375	52469
52.569	50	209	0	0	milkshake	1002	209	0	stimuli\milkshake\milkshake_02s.jpg	1	-1	0	0	milkshake_02s.jpg	0	0.0	0	46.48741188732671	46.5373900908162	0.0499782034894451	52569
52.669	50	210	0	0	axe	45	210	0	stimuli\axe\axe_03n.jpg	2	-1	0	0	axe_03n.jpg	0	0.0	0	46.5874107170384	46.6373916023877	0.0499808853492141	52669
52.769	50	211	0	0	pocketknife	1207	211	0	stimuli\pocketknife\pocketknife_06s.jpg	5	-1	0	0	pocketknife_06s.jpg	0	0.0	0	46.68741588579721	46.7373945768923	0.0499786910950206	52769
52.869	50	212	0	0	bikini	124	212	0	stimuli\bikini\bikini_10s.jpg	9	-1	0	0	bikini_10s.jpg	0	0.0	0	46.7874010622036	46.8373990142136	0.0499979520100169	52869
52.969	50	213	0	0	scorpion	1384	213	0	stimuli\scorpion\scorpion_07s.jpg	6	-1	0	0	scorpion_07s.jpg	0	0.0	0	46.88742037187329	46.937383946787996	0.0499635749147274	52969
53.069	50	214	0	0	avocado	43	214	0	stimuli\avocado\avocado_10s.jpg	9	-1	0	0	avocado_10s.jpg	0	0.0	0	46.9874206644599	47.037398380285595	0.049977715825661996	53069
53.169	50	215	0	0	hash	756	215	0	stimuli\hash\hash_05s.jpg	4	-1	0	0	hash_05s.jpg	0	0.0	0	47.0874243703438	47.13740403665	0.0499796663061716	53169
53.269	50	216	0	0	dragonfly	514	216	0	stimuli\dragonfly\dragonfly_12s.jpg	11	-1	0	0	dragonfly_12s.jpg	0	0.0	0	47.1874319771887	47.2374048168422	0.049972839653492	53269
53.369	50	217	0	0	ratchet	1286	217	0	stimuli\ratchet\ratchet_01s.jpg	0	-1	0	0	ratchet_01s.jpg	0	0.0	0	47.2874251992907	47.3374060846982	0.0499808854074217	53369
53.469	50	218	0	0	lip_balm	934	218	0	stimuli\lip_balm\lip_balm_07s.jpg	6	-1	0	0	lip_balm_07s.jpg	0	0.0	0	47.387428417569	47.437409790582	0.0499813730129972	53469
53.569	50	219	0	0	flashlight	611	219	0	stimuli\flashlight\flashlight_03s.jpg	2	-1	0	0	flashlight_03s.jpg	0	0.0	0	47.48742968542499	47.53740910789929	0.04997942247428	53569
53.669	50	220	0	0	zipper	1852	220	0	stimuli\zipper\zipper_10s.jpg	9	-1	0	0	zipper_10s.jpg	0	0.0	0	47.5874353417894	47.6374198842677	0.0499845424783416	53669
53.769	50	221	0	0	potato	1231	221	0	stimuli\potato\potato_11s.jpg	10	-1	0	0	potato_11s.jpg	0	0.0	0	47.6874383162358	47.737418713979395	0.0499803977436386	53769
53.869	50	222	0	0	garbage	655	222	0	stimuli\garbage\garbage_07s.jpg	6	-1	0	0	garbage_07s.jpg	0	0.0	0	47.7874383649905	47.83741900656611	0.0499806415755302	53869
53.969	50	223	0	0	clothespin	363	223	0	stimuli\clothespin\clothespin_07s.jpg	6	-1	0	0	clothespin_07s.jpg	0	0.0	0	47.8874430461437	47.93742295628179	0.0499799101380631	53969
54.069	50	224	0	0	handbrake	745	224	0	stimuli\handbrake\handbrake_12s.jpg	11	-1	0	0	handbrake_12s.jpg	0	0.0	0	47.9874421196873	48.037427149771204	0.0499850300839171	54069
54.169	50	225	0	0	coffee_filter	379	225	0	stimuli\coffee_filter\coffee_filter_04s.jpg	3	-1	0	0	coffee_filter_04s.jpg	0	0.0	0	48.08744631317679	48.137429880444	0.0499835672671907	54169
54.269	50	226	0	0	freezer	640	226	0	stimuli\freezer\freezer_05s.jpg	4	-1	0	0	freezer_05s.jpg	0	0.0	0	48.1874512381619	48.2374177387683	0.0499665006063879	54269
54.369	50	227	0	0	whiteboard	1813	227	0	stimuli\whiteboard\whiteboard_05s.jpg	4	-1	0	0	whiteboard_05s.jpg	0	0.0	0	48.2874493364361	48.33743680460611	0.0499874681700021	54369
54.469	50	228	0	0	telegraph	1638	228	0	stimuli\telegraph\telegraph_12s.jpg	11	-1	0	0	telegraph_12s.jpg	0	0.0	0	48.3874527984881	48.437420030531904	0.0499672320438549	54469
54.569	50	229	0	0	tortilla	1687	229	0	stimuli\tortilla\tortilla_03s.jpg	2	-1	0	0	tortilla_03s.jpg	0	0.0	0	48.4874457768165	48.537426418333794	0.0499806415173225	54569
54.669	50	230	0	0	earring	540	230	0	stimuli\earring\earring_06n.jpg	5	-1	0	0	earring_06n.jpg	0	0.0	0	48.5874675245723	48.637428417569	0.0499608929967508	54669
54.769	50	231	0	0	flipper	615	231	0	stimuli\flipper\flipper_06s.jpg	5	-1	0	0	flipper_06s.jpg	0	0.0	0	48.687466841947796	48.7374484587344	0.0499816167866811	54769
54.869	50	232	0	0	tackle	1612	232	0	stimuli\tackle\tackle_02s.jpg	1	-1	0	0	tackle_02s.jpg	0	0.0	0	48.7874512869166	48.8374314408284	0.049980153911747004	54869
54.969	50	233	0	0	heater	772	233	0	stimuli\heater\heater_10s.jpg	9	-1	0	0	heater_10s.jpg	0	0.0	0	48.8874701089808	48.937449531455094	0.04997942247428	54969
55.069	50	234	0	0	bull	214	234	0	stimuli\bull\bull_02s.jpg	1	-1	0	0	bull_02s.jpg	0	0.0	0	48.9874733272591	49.03743617073629	0.0499628434772603	55069
55.169	50	235	0	0	suitcase	1581	235	0	stimuli\suitcase\suitcase_06s.jpg	5	-1	0	0	suitcase_06s.jpg	0	0.0	0	49.0874614293571	49.137454261363004	0.0499928320059553	55169
55.269	50	236	0	0	bagel	55	236	0	stimuli\bagel\bagel_05s.jpg	4	-1	0	0	bagel_05s.jpg	0	0.0	0	49.1874775695032	49.2374445577734	0.049966988270170994	55269
55.369	50	237	0	0	wing	1827	237	0	stimuli\wing\wing_12s.jpg	11	-1	0	0	wing_12s.jpg	0	0.0	0	49.287480300176	49.3374450941337	0.0499647939577699	55369
55.469	50	238	0	0	seaweed	1400	238	0	stimuli\seaweed\seaweed_03s.jpg	2	-1	0	0	seaweed_03s.jpg	0	0.0	0	49.3874837622861	49.4374651352409	0.0499813729547895	55469
55.569	50	239	0	0	spareribs	1505	239	0	stimuli\spareribs\spareribs_10s.jpg	9	-1	0	0	spareribs_10s.jpg	0	0.0	0	49.4874840548728	49.537464208784506	0.049980153911747004	55569
55.669	50	240	0	0	car_seat	269	240	0	stimuli\car_seat\car_seat_12s.jpg	11	-1	0	0	car_seat_12s.jpg	0	0.0	0	49.5874870293192	49.6374701089808	0.0499830796616152	55669
55.769	50	241	0	0	trident	1712	241	0	stimuli\trident\trident_02s.jpg	1	-1	0	0	trident_02s.jpg	0	0.0	0	49.68748975999189	49.7374540663441	0.0499643063521944	55769
55.869	50	242	0	0	motherboard	1024	242	0	stimuli\motherboard\motherboard_02s.jpg	1	-1	0	0	motherboard_02s.jpg	0	0.0	0	49.7874751801719	49.837473863619394	0.0499986834474839	55869
55.969	50	243	0	0	crystal_ball	455	243	0	stimuli\crystal_ball\crystal_ball_09s.jpg	8	-1	0	0	crystal_ball_09s.jpg	0	0.0	0	49.8874779108446	49.93746025906879	0.0499823482241482	55969
56.069	50	244	0	0	ruby	1338	244	0	stimuli\ruby\ruby_09s.jpg	8	-1	0	0	ruby_09s.jpg	0	0.0	0	49.987478934868705	50.0374590887805	0.049980153911747004	56069
56.169	50	245	0	0	wheat	1805	245	0	stimuli\wheat\wheat_04s.jpg	3	-1	0	0	wheat_04s.jpg	0	0.0	0	50.087485078838704	50.1374664518517	0.0499813730129972	56169
56.269	50	246	0	0	dirt_bike	488	246	0	stimuli\dirt_bike\dirt_bike_12s.jpg	11	-1	0	0	dirt_bike_12s.jpg	0	0.0	0	50.18751292186789	50.237487955775606	0.0499750339076854	56269
56.369	50	247	0	0	generator	671	247	0	stimuli\generator\generator_01b.jpg	0	-1	0	0	generator_01b.jpg	0	0.0	0	50.2875039496575	50.3374858102761	0.0499818606185727	56369
56.469	50	248	0	0	coffin	383	248	0	stimuli\coffin\coffin_01b.jpg	0	-1	0	0	coffin_01b.jpg	0	0.0	0	50.38750789937329	50.437474887643496	0.049966988270170994	56469
56.569	50	249	0	0	screen1	1388	249	0	stimuli\screen1\screen1_09s.jpg	8	-1	0	0	screen1_09s.jpg	0	0.0	0	50.487493075779604	50.5374746925663	0.0499816167866811	56569
56.669	50	250	0	0	lamp	891	250	0	stimuli\lamp\lamp_07s.jpg	6	-1	0	0	lamp_07s.jpg	0	0.0	0	50.5874960502842	50.6374961965485	0.0500001462642103	56669
56.769	50	251	0	0	rooster	1330	251	0	stimuli\rooster\rooster_10s.jpg	9	-1	0	0	rooster_10s.jpg	0	0.0	0	50.6875399847049	50.7374796663062	0.049939681601245005	56769
56.869	50	252	0	0	shortbread	1429	252	0	stimuli\shortbread\shortbread_04s.jpg	3	-1	0	0	shortbread_04s.jpg	0	0.0	0	50.7874993173173	50.837499951187105	0.0500006338697858	56869
56.969	50	253	0	0	breathalyzer	198	253	0	stimuli\breathalyzer\breathalyzer_02s.jpg	1	-1	0	0	breathalyzer_02s.jpg	0	0.0	0	50.8875232593855	50.937501462816705	0.0499782034312375	56969
57.069	50	254	0	0	bubble_wrap	208	254	0	stimuli\bubble_wrap\bubble_wrap_04s.jpg	3	-1	0	0	bubble_wrap_04s.jpg	0	0.0	0	50.9875223328709	51.0375022430089	0.0499799101380631	57069
57.169	50	255	0	0	pot	1230	255	0	stimuli\pot\pot_02s.jpg	1	-1	0	0	pot_02s.jpg	0	0.0	0	51.087527257855996	51.1375074117677	0.049980153911747004	57169
57.269	50	256	0	0	garter	659	256	0	stimuli\garter\garter_07s.jpg	6	-1	0	0	garter_07s.jpg	0	0.0	0	51.1875268190051	51.2374911252991	0.0499643062939867	57269
57.369	50	257	0	0	goalpost	683	257	0	stimuli\goalpost\goalpost_09s.jpg	8	-1	0	0	goalpost_09s.jpg	0	0.0	0	51.2875297934515	51.3375114102382	0.0499816167866811	57369
57.469	50	258	0	0	scooter	1382	258	0	stimuli\scooter\scooter_10s.jpg	9	-1	0	0	scooter_10s.jpg	0	0.0	0	51.387518626987	51.437498780957	0.0499801539699547	57469
57.569	50	259	0	0	cummerbund	459	259	0	stimuli\cummerbund\cummerbund_08s.jpg	7	-1	0	0	cummerbund_08s.jpg	0	0.0	0	51.487520870054105	51.5374988297117	0.0499779596575536	57569
57.669	50	260	0	0	laptop	897	260	0	stimuli\laptop\laptop_11s.jpg	10	-1	0	0	laptop_11s.jpg	0	0.0	0	51.5875192121603	51.637522527948	0.0500033157877624	57669
57.769	50	261	0	0	cigarette_holder	346	261	0	stimuli\cigarette_holder\cigarette_holder_07s.jpg	6	-1	0	0	cigarette_holder_07s.jpg	0	0.0	0	51.687542422791005	51.7375052662683	0.0499628434772603	57769
57.869	50	262	0	0	bonnet	163	262	0	stimuli\bonnet\bonnet_10s.jpg	9	-1	0	0	bonnet_10s.jpg	0	0.0	0	51.7875400334597	51.8375062902342	0.0499662567744963	57869
57.969	50	263	0	0	visor	1766	263	0	stimuli\visor\visor_02s.jpg	1	-1	0	0	visor_02s.jpg	0	0.0	0	51.887544958386606	51.937530719908	0.0499857615213841	57969
58.069	50	264	0	0	spoon	1519	264	0	stimuli\spoon\spoon_05n.jpg	4	-1	0	0	spoon_05n.jpg	0	0.0	0	51.987534035753896	52.03753076872089	0.0499967329669744	58069
58.169	50	265	0	0	root	1331	265	0	stimuli\root\root_08s.jpg	7	-1	0	0	root_08s.jpg	0	0.0	0	52.087551394943105	52.137536425085294	0.0499850301421247	58169
58.269	50	266	0	0	crow	446	266	0	stimuli\crow\crow_02s.jpg	1	-1	0	0	crow_02s.jpg	0	0.0	0	52.1875529065728	52.23751818813621	0.0499652815633453	58269
58.369	50	267	0	0	photograph	1164	267	0	stimuli\photograph\photograph_04s.jpg	3	-1	0	0	photograph_04s.jpg	0	0.0	0	52.2875405210652	52.337536034989206	0.0499955139239319	58369
58.469	50	268	0	0	lid	923	268	0	stimuli\lid\lid_03s.jpg	2	-1	0	0	lid_03s.jpg	0	0.0	0	52.387557148875196	52.437537058955094	0.0499799100798555	58469
58.569	50	269	0	0	elephant	554	269	0	stimuli\elephant\elephant_11n.jpg	10	-1	0	0	elephant_11n.jpg	0	0.0	0	52.4875591481104	52.537523942068205	0.0499647939577699	58569
58.669	50	270	0	0	cup	460	270	0	stimuli\cup\cup_11s.jpg	10	-1	0	0	cup_11s.jpg	0	0.0	0	52.587561878725005	52.637544470781	0.0499825920560397	58669
58.769	50	271	0	0	camera2	247	271	0	stimuli\camera2\camera2_11s.jpg	10	-1	0	0	camera2_11s.jpg	0	0.0	0	52.6875641217921	52.73754720145371	0.0499830796616152	58769
58.869	50	272	0	0	bank	69	272	0	stimuli\bank\bank_08s.jpg	7	-1	0	0	bank_08s.jpg	0	0.0	0	52.787551004847	52.8375501759001	0.0499991710530594	58869
58.969	50	273	0	0	ostrich	1084	273	0	stimuli\ostrich\ostrich_02s.jpg	1	-1	0	0	ostrich_02s.jpg	0	0.0	0	52.8875717773917	52.9375521751354	0.0499803977436386	58969
59.069	50	274	0	0	combination_lock	390	274	0	stimuli\combination_lock\combination_lock_12s.jpg	11	-1	0	0	combination_lock_12s.jpg	0	0.0	0	52.9875581728411	53.0375358886668	0.049977715825661996	59069
59.169	50	275	0	0	fruit	645	275	0	stimuli\fruit\fruit_04s.jpg	3	-1	0	0	fruit_04s.jpg	0	0.0	0	53.0875733377761	53.137559343129396	0.0499860053532757	59169
59.269	50	276	0	0	pin	1177	276	0	stimuli\pin\pin_10s.jpg	9	-1	0	0	pin_10s.jpg	0	0.0	0	53.1875599770574	53.2375581728411	0.0499981957837008	59269
59.369	50	277	0	0	coconut	375	277	0	stimuli\coconut\coconut_01b.jpg	0	-1	0	0	coconut_01b.jpg	0	0.0	0	53.2875651458162	53.3375579778221	0.0499928320059553	59369
59.469	50	278	0	0	face_mask	570	278	0	stimuli\face_mask\face_mask_12s.jpg	11	-1	0	0	face_mask_12s.jpg	0	0.0	0	53.3875849430915	53.4375482741743	0.0499633310828358	59469
59.569	50	279	0	0	gourd	696	279	0	stimuli\gourd\gourd_07s.jpg	6	-1	0	0	gourd_07s.jpg	0	0.0	0	53.487571338540896	53.5375661210273	0.0499947824864648	59569
59.669	50	280	0	0	riser	1314	280	0	stimuli\riser\riser_08s.jpg	7	-1	0	0	riser_08s.jpg	0	0.0	0	53.5875886977883	53.6375520288711	0.0499633310828358	59669
59.769	50	281	0	0	bow2	175	281	0	stimuli\bow2\bow2_04s.jpg	3	-1	0	0	bow2_04s.jpg	0	0.0	0	53.6875919160666	53.7375718261464	0.0499799100798555	59769
59.869	50	282	0	0	rack1	1268	282	0	stimuli\rack1\rack1_02s.jpg	1	-1	0	0	rack1_02s.jpg	0	0.0	0	53.787590989552	53.8375721187331	0.0499811291811056	59869
59.969	50	283	0	0	grate	707	283	0	stimuli\grate\grate_01b.jpg	0	-1	0	0	grate_01b.jpg	0	0.0	0	53.8875988402287	53.9375738741364	0.0499750339076854	59969
60.069	50	284	0	0	tennis_ball	1642	284	0	stimuli\tennis_ball\tennis_ball_09s.jpg	8	-1	0	0	tennis_ball_09s.jpg	0	0.0	0	53.9875971823349	54.0375624638982	0.0499652815633453	60069
60.169	50	285	0	0	cap	265	285	0	stimuli\cap\cap_12s.jpg	11	-1	0	0	cap_12s.jpg	0	0.0	0	54.0875830901787	54.137585674529	0.0500025843502954	60169
60.269	50	286	0	0	windsock	1822	286	0	stimuli\windsock\windsock_02s.jpg	1	-1	0	0	windsock_02s.jpg	0	0.0	0	54.187604106497	54.237585235678104	0.0499811291811056	60269
60.369	50	287	0	0	uniform	1747	287	0	stimuli\uniform\uniform_10s.jpg	9	-1	0	0	uniform_10s.jpg	0	0.0	0	54.2875875762547	54.3375721187331	0.0499845424783416	60369
60.469	50	288	0	0	noodle	1061	288	0	stimuli\noodle\noodle_07s.jpg	6	-1	0	0	noodle_07s.jpg	0	0.0	0	54.3876107868855	54.437598742719295	0.0499879558337852	60469
60.569	50	289	0	0	toothpaste	1680	289	0	stimuli\toothpaste\toothpaste_03s.jpg	2	-1	0	0	toothpaste_03s.jpg	0	0.0	0	54.4875964508974	54.537574410555	0.0499779596575536	60569
60.669	50	290	0	0	macadamia	951	290	0	stimuli\macadamia\macadamia_11s.jpg	10	-1	0	0	macadamia_11s.jpg	0	0.0	0	54.587612347269896	54.6375949392677	0.0499825919978321	60669
60.769	50	291	0	0	gravel	709	291	0	stimuli\gravel\gravel_05n.jpg	4	-1	0	0	gravel_05n.jpg	0	0.0	0	54.6876031312859	54.737580359506	0.0499772282200865	60769
60.869	50	292	0	0	red_carpet	1298	292	0	stimuli\red_carpet\red_carpet_09s.jpg	8	-1	0	0	red_carpet_09s.jpg	0	0.0	0	54.787600985728204	54.83758016442879	0.0499791787005961	60869
60.969	50	293	0	0	jug	853	293	0	stimuli\jug\jug_03s.jpg	2	-1	0	0	jug_03s.jpg	0	0.0	0	54.8876295601949	54.93760191224279	0.0499723520479165	60969
61.069	50	294	0	0	firecracker	594	294	0	stimuli\firecracker\firecracker_08s.jpg	7	-1	0	0	firecracker_08s.jpg	0	0.0	0	54.9876052280306	55.037602692434994	0.0499974644044414	61069
61.169	50	295	0	0	jumpsuit	859	295	0	stimuli\jumpsuit\jumpsuit_11s.jpg	10	-1	0	0	jumpsuit_11s.jpg	0	0.0	0	55.087624050094696	55.137606154487	0.0499821043922566	61169
61.269	50	296	0	0	photo_booth	1163	296	0	stimuli\photo_booth\photo_booth_03s.jpg	2	-1	0	0	photo_booth_03s.jpg	0	0.0	0	55.187614102673294	55.23760693467921	0.0499928320059553	61269
61.369	50	297	0	0	jalapeno	838	297	0	stimuli\jalapeno\jalapeno_11s.jpg	10	-1	0	0	jalapeno_11s.jpg	0	0.0	0	55.2876170771779	55.337610884395	0.0499938072171062	61369
61.469	50	298	0	0	barbell	72	298	0	stimuli\barbell\barbell_01s.jpg	0	-1	0	0	barbell_01s.jpg	0	0.0	0	55.38761688210071	55.437618247466204	0.0500013653654605	61469
61.569	50	299	0	0	jersey	846	299	0	stimuli\jersey\jersey_01b.jpg	0	-1	0	0	jersey_01b.jpg	0	0.0	0	55.4876191251678	55.537616345740396	0.0499972205725498	61569
61.669	50	300	0	0	train_set	1700	300	0	stimuli\train_set\train_set_03s.jpg	2	-1	0	0	train_set_03s.jpg	0	0.0	0	55.58762136817679	55.637623708753395	0.0500023405766115	61669
61.769	50	301	0	0	cordon_bleu	408	301	0	stimuli\cordon_bleu\cordon_bleu_07s.jpg	6	-1	0	0	cordon_bleu_07s.jpg	0	0.0	0	55.6876394588617	55.7376237575081	0.049984298646449994	61769
61.869	50	302	0	0	aircraft_carrier	9	302	0	stimuli\aircraft_carrier\aircraft_carrier_04s.jpg	3	-1	0	0	aircraft_carrier_04s.jpg	0	0.0	0	55.787643164745504	55.8376228310517	0.0499796663061716	61869
61.969	50	303	0	0	marshmallow	977	303	0	stimuli\marshmallow\marshmallow_10s.jpg	9	-1	0	0	marshmallow_10s.jpg	0	0.0	0	55.887645651586396	55.9376270245411	0.0499813729547895	61969
62.069	50	304	0	0	raft	1275	304	0	stimuli\raft\raft_07s.jpg	6	-1	0	0	raft_07s.jpg	0	0.0	0	55.987645944173	56.0376290237764	0.0499830796034075	62069
62.169	50	305	0	0	mustard	1044	305	0	stimuli\mustard\mustard_11s.jpg	10	-1	0	0	mustard_11s.jpg	0	0.0	0	56.0876394100487	56.1376151754521	0.0499757654033601	62169
62.269	50	306	0	0	lamb	889	306	0	stimuli\lamb\lamb_02s.jpg	1	-1	0	0	lamb_02s.jpg	0	0.0	0	56.1876360455062	56.237637898477296	0.050001852971035994	62269
62.369	50	307	0	0	pendulum	1144	307	0	stimuli\pendulum\pendulum_10s.jpg	9	-1	0	0	pendulum_10s.jpg	0	0.0	0	56.2876541361329	56.3376364843571	0.0499823482241482	62369
62.47	50	308	0	0	workbench	1835	308	0	stimuli\workbench\workbench_02s.jpg	1	-1	0	0	workbench_02s.jpg	0	0.0	0	56.387662718247206	56.4376426283852	0.0499799101380631	62470
70.57	50	309	0	0	crystal2	454	0	1	stimuli\crystal2\crystal2_04s.jpg	3	-1	1	0	crystal2_04s.jpg	0	0.0	0	64.4878592772293	64.537838212098	0.0499789348687045	70570
70.67	50	310	0	0	bandage	66	1	1	stimuli\bandage\bandage_05s.jpg	4	-1	1	0	bandage_05s.jpg	0	0.0	0	64.58786005742151	64.6378448437317	0.0499847863102332	70670
70.77	50	311	0	0	squash	1526	2	1	stimuli\squash\squash_07s.jpg	6	-1	1	0	squash_07s.jpg	0	0.0	0	64.6878623004304	64.7378439172171	0.0499816167866811	70770
70.87	50	312	0	0	lip_gloss	935	3	1	stimuli\lip_gloss\lip_gloss_04s.jpg	3	-1	1	0	lip_gloss_04s.jpg	0	0.0	0	64.7878716139821	64.8378500612453	0.0499784472631291	70870
70.97	50	313	0	0	sandwich	1357	4	1	stimuli\sandwich\sandwich_10s.jpg	9	-1	1	0	sandwich_10s.jpg	0	0.0	0	64.88787141890501	64.93784913473061	0.049977715825661996	70970
71.07	50	314	0	0	stained_glass	1531	5	1	stimuli\stained_glass\stained_glass_08s.jpg	7	-1	1	0	stained_glass_08s.jpg	0	0.0	0	64.9878714676597	65.0378521092352	0.0499806415755302	71070
71.17	50	315	0	0	noose	1062	6	1	stimuli\noose\noose_11s.jpg	10	-1	1	0	noose_11s.jpg	0	0.0	0	65.0878741983324	65.13785581511911	0.0499816167866811	71170
71.27	50	316	0	0	fire_alarm	591	7	1	stimuli\fire_alarm\fire_alarm_12s.jpg	11	-1	1	0	fire_alarm_12s.jpg	0	0.0	0	65.1878769290051	65.2378544009989	0.0499774719937705	71270
71.37	50	317	0	0	paper_bag	1113	8	1	stimuli\paper_bag\paper_bag_01b.jpg	0	-1	1	0	paper_bag_01b.jpg	0	0.0	0	65.2878784406348	65.33786152023819	0.0499830796034075	71370
71.47	50	318	0	0	grain	698	9	1	stimuli\grain\grain_09s.jpg	8	-1	1	0	grain_09s.jpg	0	0.0	0	65.3878804398701	65.4378459652071	0.0499655253370292	71470
71.57	50	319	0	0	curtain	465	10	1	stimuli\curtain\curtain_09s.jpg	8	-1	1	0	curtain_09s.jpg	0	0.0	0	65.4878697610111	65.5378518654034	0.0499821043922566	71570
71.67	50	320	0	0	blimp	139	11	1	stimuli\blimp\blimp_03n.jpg	2	-1	1	0	blimp_03n.jpg	0	0.0	0	65.5879015049431	65.6378697122564	0.0499682073132135	71670
71.77	50	321	0	0	pocket	1205	12	1	stimuli\pocket\pocket_11s.jpg	10	-1	1	0	pocket_11s.jpg	0	0.0	0	65.6878918013535	65.7378544009989	0.0499625996453688	71770
71.87	50	322	0	0	filter	587	13	1	stimuli\filter\filter_11s.jpg	10	-1	1	0	filter_11s.jpg	0	0.0	0	65.7878930691513	65.8378551811911	0.0499621120397933	71870
71.97	50	323	0	0	camel	245	14	1	stimuli\camel\camel_11n.jpg	10	-1	1	0	camel_11n.jpg	0	0.0	0	65.8878977503045	65.9378603499499	0.0499625996453688	71970
72.07	50	324	0	0	dollhouse	500	15	1	stimuli\dollhouse\dollhouse_01b.jpg	0	-1	1	0	dollhouse_01b.jpg	0	0.0	0	65.987885364797	66.0378838044126	0.0499984396155924	72070
72.17	50	325	0	0	trunk	1722	16	1	stimuli\trunk\trunk_09s.jpg	8	-1	1	0	trunk_09s.jpg	0	0.0	0	66.0878990668571	66.13787970843259	0.0499806415755302	72170
72.27	50	326	0	0	barbed_wire	71	17	1	stimuli\barbed_wire\barbed_wire_04s.jpg	3	-1	1	0	barbed_wire_04s.jpg	0	0.0	0	66.1879035041784	66.2378868276719	0.0499833234935068	72270
72.37	50	327	0	0	shield	1420	18	1	stimuli\shield\shield_08n.jpg	7	-1	1	0	shield_08n.jpg	0	0.0	0	66.2879055034136	66.3378873640322	0.0499818606185727	72370
72.47	50	328	0	0	nail_polish	1049	19	1	stimuli\nail_polish\nail_polish_06s.jpg	5	-1	1	0	nail_polish_06s.jpg	0	0.0	0	66.3879106721724	66.43787400331351	0.0499633311410435	72470
72.57	50	329	0	0	coral	406	20	1	stimuli\coral\coral_08s.jpg	7	-1	1	0	coral_08s.jpg	0	0.0	0	66.4878946295357	66.53787429584189	0.0499796663061716	72570
72.67	50	330	0	0	knitting	880	21	1	stimuli\knitting\knitting_10s.jpg	9	-1	1	0	knitting_10s.jpg	0	0.0	0	66.5879139392055	66.63789458078101	0.0499806415755302	72670
72.77	50	331	0	0	watermelon	1793	22	1	stimuli\watermelon\watermelon_03s.jpg	2	-1	1	0	watermelon_03s.jpg	0	0.0	0	66.6879169137101	66.73789706762179	0.049980153911747004	72770
72.87	50	332	0	0	beaker	101	23	1	stimuli\beaker\beaker_03s.jpg	2	-1	1	0	beaker_03s.jpg	0	0.0	0	66.7879198881565	66.837900529732	0.0499806415755302	72870
72.97	50	333	0	0	wrist	1842	24	1	stimuli\wrist\wrist_08s.jpg	7	-1	1	0	wrist_08s.jpg	0	0.0	0	66.8879072588752	66.9378852185328	0.0499779596575536	72970
73.07	50	334	0	0	mattress	985	25	1	stimuli\mattress\mattress_09s.jpg	8	-1	1	0	mattress_09s.jpg	0	0.0	0	66.9879270561505	67.0378862424986	0.0499591863481328	73070
73.17	50	335	0	0	sundae	1582	26	1	stimuli\sundae\sundae_11s.jpg	10	-1	1	0	sundae_11s.jpg	0	0.0	0	67.0879300306551	67.137915060739	0.0499850300839171	73170
73.27	50	336	0	0	clasp	351	27	1	stimuli\clasp\clasp_05s.jpg	4	-1	1	0	clasp_05s.jpg	0	0.0	0	67.1879164261045	67.2378931666608	0.0499767405563034	73270
73.37	50	337	0	0	mousse	1030	28	1	stimuli\mousse\mousse_06s.jpg	5	-1	1	0	mousse_06s.jpg	0	0.0	0	67.2879308596021	67.3378949221224	0.0499640625203028	73370
73.47	50	338	0	0	flip_flop	614	29	1	stimuli\flip_flop\flip_flop_12s.jpg	11	-1	1	0	flip_flop_12s.jpg	0	0.0	0	67.38793627213451	67.4379152070615	0.0499789349269122	73470
73.57	50	339	0	0	dish	489	30	1	stimuli\dish\dish_04s.jpg	3	-1	1	0	dish_04s.jpg	0	0.0	0	67.4879338828032	67.5379169624648	0.0499830796616152	73570
73.67	50	340	0	0	star_fruit	1540	31	1	stimuli\star_fruit\star_fruit_12s.jpg	11	-1	1	0	star_fruit_12s.jpg	0	0.0	0	67.58794002683129	67.6379070150433	0.0499669882119633	73670
73.77	50	341	0	0	arugula	40	32	1	stimuli\arugula\arugula_05s.jpg	4	-1	1	0	arugula_05s.jpg	0	0.0	0	67.6879442203208	67.7379219361464	0.049977715825661996	73770
73.87	50	342	0	0	olive	1075	33	1	stimuli\olive\olive_12s.jpg	11	-1	1	0	olive_12s.jpg	0	0.0	0	67.7879430500325	67.8379249106511	0.0499818606185727	73870
73.97	50	343	0	0	pajamas	1099	34	1	stimuli\pajamas\pajamas_01b.jpg	0	-1	1	0	pajamas_01b.jpg	0	0.0	0	67.8879496816662	67.93792739749189	0.049977715825661996	73970
74.07	50	344	0	0	jet	847	35	1	stimuli\jet\jet_10s.jpg	9	-1	1	0	jet_10s.jpg	0	0.0	0	67.9879309571115	68.0379347605631	0.0500038034515455	74070
74.17	50	345	0	0	bedpan	109	36	1	stimuli\bedpan\bedpan_04s.jpg	3	-1	1	0	bedpan_04s.jpg	0	0.0	0	68.0879524610937	68.1379338340485	0.0499813729547895	74170
74.27	50	346	0	0	pumpkin	1253	37	1	stimuli\pumpkin\pumpkin_10s.jpg	9	-1	1	0	pumpkin_10s.jpg	0	0.0	0	68.18793836893751	68.2379338828032	0.0499955138657242	74270
74.37	50	347	0	0	cabbage	232	38	1	stimuli\cabbage\cabbage_12s.jpg	11	-1	1	0	cabbage_12s.jpg	0	0.0	0	68.2879579224391	68.3379419773119	0.0499840548727661	74370
74.47	50	348	0	0	gramophone	699	39	1	stimuli\gramophone\gramophone_11s.jpg	10	-1	1	0	gramophone_11s.jpg	0	0.0	0	68.38796187209661	68.4379381251056	0.0499762530089356	74470
74.57	50	349	0	0	candy_bar	256	40	1	stimuli\candy_bar\candy_bar_05s.jpg	4	-1	1	0	candy_bar_05s.jpg	0	0.0	0	68.4879453418544	68.537942318595	0.0499969767406583	74570
74.67	50	350	0	0	dreidel	517	41	1	stimuli\dreidel\dreidel_01b.jpg	0	-1	1	0	dreidel_01b.jpg	0	0.0	0	68.5879695277545	68.6379440740566	0.049974546302110005	74670
74.77	50	351	0	0	wood	1833	42	1	stimuli\wood\wood_06s.jpg	5	-1	1	0	wood_06s.jpg	0	0.0	0	68.6879707955522	68.7379697227734	0.0499989272211678	74770
74.87	50	352	0	0	stethoscope	1550	43	1	stimuli\stethoscope\stethoscope_08s.jpg	7	-1	1	0	stethoscope_08s.jpg	0	0.0	0	68.787970844307	68.8379505106132	0.0499796663061716	74870
74.97	50	353	0	0	bin	125	44	1	stimuli\bin\bin_07s.jpg	6	-1	1	0	bin_07s.jpg	0	0.0	0	68.8879816206754	68.9379549479345	0.0499733272590674	74970
75.07	50	354	0	0	guardrail	720	45	1	stimuli\guardrail\guardrail_03s.jpg	2	-1	1	0	guardrail_03s.jpg	0	0.0	0	68.9879563132417	69.03795499668921	0.0499986834474839	75070
75.17	50	355	0	0	crutch	452	46	1	stimuli\crutch\crutch_11s.jpg	10	-1	1	0	crutch_11s.jpg	0	0.0	0	69.0879761105753	69.1379584587994	0.0499823482241482	75170
75.27	50	356	0	0	tray	1705	47	1	stimuli\tray\tray_11s.jpg	10	-1	1	0	tray_11s.jpg	0	0.0	0	69.18797908502171	69.23796143324579	0.0499823482241482	75270
75.37	50	357	0	0	can	250	48	1	stimuli\can\can_02s.jpg	1	-1	1	0	can_02s.jpg	0	0.0	0	69.28796523669729	69.3379473410896	0.0499821043922566	75370
75.47	50	358	0	0	paddle	1094	49	1	stimuli\paddle\paddle_04s.jpg	3	-1	1	0	paddle_04s.jpg	0	0.0	0	69.387965529284	69.437950315536	0.0499847862520255	75470
75.57	50	359	0	0	camcorder	244	50	1	stimuli\camcorder\camcorder_06s.jpg	5	-1	1	0	camcorder_06s.jpg	0	0.0	0	69.4879689913359	69.5379630423849	0.0499940510489978	75570
75.67	50	360	0	0	clarinet	350	51	1	stimuli\clarinet\clarinet_04s.jpg	3	-1	1	0	clarinet_04s.jpg	0	0.0	0	69.5879729410517	69.6379704054561	0.0499974644044414	75670
75.77	50	361	0	0	dishrag	490	52	1	stimuli\dishrag\dishrag_02s.jpg	1	-1	1	0	dishrag_02s.jpg	0	0.0	0	69.6879951764713	69.7379753303831	0.049980153911747004	75770
75.87	50	362	0	0	espresso	560	53	1	stimuli\espresso\espresso_09s.jpg	8	-1	1	0	espresso_09s.jpg	0	0.0	0	69.7880276518408	69.8379765981808	0.0499489463400096	75870
75.97	50	363	0	0	cantaloupe	263	54	1	stimuli\cantaloupe\cantaloupe_09s.jpg	8	-1	1	0	cantaloupe_09s.jpg	0	0.0	0	69.887984790199	69.9379600679385	0.049975277739577	75970
76.07	50	364	0	0	alpaca	15	55	1	stimuli\alpaca\alpaca_07s.jpg	6	-1	1	0	alpaca_07s.jpg	0	0.0	0	69.9879841075162	70.0379632862168	0.0499791787005961	76070
76.17	50	365	0	0	microphone	998	56	1	stimuli\microphone\microphone_09s.jpg	8	-1	1	0	microphone_09s.jpg	0	0.0	0	70.08800488006091	70.1379825958866	0.049977715825661996	76170
76.27	50	366	0	0	rattle	1287	57	1	stimuli\rattle\rattle_09s.jpg	8	-1	1	0	rattle_09s.jpg	0	0.0	0	70.1880244335625	70.2379863018286	0.0499618682661094	76270
76.37	50	367	0	0	piecrust	1169	58	1	stimuli\piecrust\piecrust_09s.jpg	8	-1	1	0	piecrust_09s.jpg	0	0.0	0	70.28800570900779	70.3379865943571	0.0499808853492141	76370
76.47	50	368	0	0	ice_cube	819	59	1	stimuli\ice_cube\ice_cube_06s.jpg	5	-1	1	0	ice_cube_06s.jpg	0	0.0	0	70.38799698062941	70.4379907879047	0.0499938072753139	76470
76.57	50	369	0	0	bean	102	60	1	stimuli\bean\bean_05s.jpg	4	-1	1	0	bean_05s.jpg	0	0.0	0	70.4880111703533	70.53799449378859	0.0499833234352991	76570
76.67	50	370	0	0	stove2	1564	61	1	stimuli\stove2\stove2_11s.jpg	10	-1	1	0	stove2_11s.jpg	0	0.0	0	70.5880121943192	70.63799576158641	0.0499835672671907	76670
76.77	50	371	0	0	doorhandle	508	62	1	stimuli\doorhandle\doorhandle_04s.jpg	3	-1	1	0	doorhandle_04s.jpg	0	0.0	0	70.6880168754724	70.737996054173	0.0499791787005961	76770
76.87	50	372	0	0	eggplant	550	63	1	stimuli\eggplant\eggplant_07s.jpg	6	-1	1	0	eggplant_07s.jpg	0	0.0	0	70.78801887470759	70.8379995162832	0.0499806415755302	76870
76.97	50	373	0	0	rabbit	1265	64	1	stimuli\rabbit\rabbit_10n.jpg	9	-1	1	0	rabbit_10n.jpg	0	0.0	0	70.888021849154	70.93799103167841	0.0499691825243644	76970
77.07	50	374	0	0	orange_rind	1079	65	1	stimuli\orange_rind\orange_rind_05s.jpg	4	-1	1	0	orange_rind_05s.jpg	0	0.0	0	70.98802311701	71.03800497757041	0.049981860560364993	77070
77.17	50	375	0	0	notebook	1064	66	1	stimuli\notebook\notebook_06s.jpg	5	-1	1	0	notebook_06s.jpg	0	0.0	0	71.08802584762451	71.1380057577626	0.0499799101380631	77170
77.27	50	376	0	0	keg	866	67	1	stimuli\keg\keg_12s.jpg	11	-1	1	0	keg_12s.jpg	0	0.0	0	71.1880305287777	71.2380089760409	0.0499784472631291	77270
77.37	50	377	0	0	beanie	104	68	1	stimuli\beanie\beanie_08s.jpg	7	-1	1	0	beanie_08s.jpg	0	0.0	0	71.2880381356226	71.338013901026	0.0499757654033601	77370
77.47	50	378	0	0	whale	1804	69	1	stimuli\whale\whale_02s.jpg	1	-1	1	0	whale_02s.jpg	0	0.0	0	71.3880364777287	71.4380168754724	0.0499803977436386	77470
77.57	50	379	0	0	gasket	661	70	1	stimuli\gasket\gasket_06s.jpg	5	-1	1	0	gasket_06s.jpg	0	0.0	0	71.4880370140891	71.53801058518	0.049973571090959006	77570
77.67	50	380	0	0	acorn	3	71	1	stimuli\acorn\acorn_10s.jpg	9	-1	1	0	acorn_10s.jpg	0	0.0	0	71.5880251162453	71.63800697680558	0.049981860560364993	77670
77.77	50	381	0	0	beehive	112	72	1	stimuli\beehive\beehive_10s.jpg	9	-1	1	0	beehive_10s.jpg	0	0.0	0	71.68804418208309	71.738021897967	0.0499777158838697	77770
77.87	50	382	0	0	canister	259	73	1	stimuli\canister\canister_06s.jpg	5	-1	1	0	canister_06s.jpg	0	0.0	0	71.7880434994586	71.83802584762451	0.0499823481659405	77870
77.97	50	383	0	0	baton3	94	74	1	stimuli\baton3\baton3_08s.jpg	7	-1	1	0	baton3_08s.jpg	0	0.0	0	71.88805135007709	71.9380351611762	0.0499838110990822	77970
78.07	50	384	0	0	candy	255	75	1	stimuli\candy\candy_04s.jpg	3	-1	1	0	candy_04s.jpg	0	0.0	0	71.9880331131862	72.03803204040742	0.0499989272211678	78070
78.17	50	385	0	0	snowplow	1484	76	1	stimuli\snowplow\snowplow_02s.jpg	1	-1	1	0	snowplow_02s.jpg	0	0.0	0	72.08803486858959	72.1380342834746	0.04999941488495099	78170
78.27	50	386	0	0	blind	140	77	1	stimuli\blind\blind_03s.jpg	2	-1	1	0	blind_03s.jpg	0	0.0	0	72.18805344688009	72.2380182407796	0.0499647938995622	78270
78.37	50	387	0	0	meat_grinder	988	78	1	stimuli\meat_grinder\meat_grinder_09s.jpg	8	-1	1	0	meat_grinder_09s.jpg	0	0.0	0	72.2880561774946	72.3380365752382	0.0499803977436386	78370
78.47	50	388	0	0	bandanna	67	79	1	stimuli\bandanna\bandanna_02s.jpg	1	-1	1	0	bandanna_02s.jpg	0	0.0	0	72.388043791987	72.4380222392501	0.0499784472631291	78470
78.57	50	389	0	0	skunk	1459	80	1	stimuli\skunk\skunk_04s.jpg	3	-1	1	0	skunk_04s.jpg	0	0.0	0	72.4880445721792	72.5380422804155	0.049997708236333004	78570
78.67	50	390	0	0	bow3	176	81	1	stimuli\bow3\bow3_05s.jpg	4	-1	1	0	bow3_05s.jpg	0	0.0	0	72.5880658323877	72.6380445234245	0.049978691036812996	78670
78.77	50	391	0	0	needle	1055	82	1	stimuli\needle\needle_10n.jpg	9	-1	1	0	needle_10n.jpg	0	0.0	0	72.68805442209121	72.73804896074579	0.0499945386545733	78770
78.87	50	392	0	0	mousepad	1028	83	1	stimuli\mousepad\mousepad_10s.jpg	9	-1	1	0	mousepad_10s.jpg	0	0.0	0	72.7880730003235	72.83804876572691	0.0499757654033601	78870
78.97	50	393	0	0	minivan	1003	84	1	stimuli\minivan\minivan_08s.jpg	7	-1	1	0	minivan_08s.jpg	0	0.0	0	72.8880567139131	72.9380529592163	0.0499962453031912	78970
79.07	50	394	0	0	fruitcake	646	85	1	stimuli\fruitcake\fruitcake_06s.jpg	5	-1	1	0	fruitcake_06s.jpg	0	0.0	0	72.98807602358279	73.0380552022834	0.0499791787005961	79070
79.17	50	395	0	0	chick	321	86	1	stimuli\chick\chick_05s.jpg	4	-1	1	0	chick_05s.jpg	0	0.0	0	73.08808070473609	73.1380413539009	0.0499606491648592	79170
79.27	50	396	0	0	tiramisu	1663	87	1	stimuli\tiramisu\tiramisu_07s.jpg	6	-1	1	1	tiramisu_07s.jpg	0	0.0	0	73.1880634430563	73.23806456453171	0.0500011214753613	79270
79.37	50	397	0	0	blowfish	146	88	1	stimuli\blowfish\blowfish_08s.jpg	7	-1	1	0	blowfish_08s.jpg	0	0.0	0	73.288081533683	73.3380658323877	0.0499842987046577	79370
79.47	50	398	0	0	guacamole	719	89	1	stimuli\guacamole\guacamole_03s.jpg	2	-1	1	0	guacamole_03s.jpg	1	0.250155062647536	1	73.3880598834367	73.4380419878289	0.0499821043922566	79470
79.57	50	399	0	0	totem_pole	1689	90	1	stimuli\totem_pole\totem_pole_03s.jpg	2	-1	1	0	totem_pole_03s.jpg	0	0.0	0	73.488057737879	73.5380381356226	0.0499803977436386	79570
79.67	50	400	0	0	roller	1324	91	1	stimuli\roller\roller_04s.jpg	3	-1	1	0	roller_04s.jpg	0	0.0	0	73.5880724152084	73.63804403581891	0.0499716206104495	79670
79.77	50	401	0	0	horn	797	92	1	stimuli\horn\horn_05s.jpg	4	-1	1	0	horn_05s.jpg	0	0.0	0	73.6880697820452	73.7380730978912	0.0500033158459701	79770
79.87	50	402	0	0	pliers	1201	93	1	stimuli\pliers\pliers_04s.jpg	3	-1	1	0	pliers_04s.jpg	0	0.0	0	73.7880956745939	73.8380482781213	0.0499526035273448	79870
79.97	50	403	0	0	flypaper	622	94	1	stimuli\flypaper\flypaper_02s.jpg	1	-1	1	0	flypaper_02s.jpg	0	0.0	0	73.8880703672185	73.9380536906538	0.0499833234352991	79970
80.07	50	404	0	0	hairspray	738	95	1	stimuli\hairspray\hairspray_06s.jpg	5	-1	1	0	hairspray_06s.jpg	0	0.0	0	73.9880740731023	74.0380539832404	0.0499799101380631	80070
80.17	50	405	0	0	easel	542	96	1	stimuli\easel\easel_10s.jpg	9	-1	1	0	easel_10s.jpg	0	0.0	0	74.0880721713766	74.13805281295208	0.0499806415755302	80170
80.27	50	406	0	0	comic_book	391	97	1	stimuli\comic_book\comic_book_11s.jpg	10	-1	1	0	comic_book_11s.jpg	0	0.0	0	74.1880763649242	74.2380543245818	0.0499779596575536	80270
80.37	50	407	0	0	ginger	673	98	1	stimuli\ginger\ginger_03s.jpg	2	-1	1	0	ginger_03s.jpg	0	0.0	0	74.28808031464001	74.3380590056768	0.049978691036812996	80370
80.47	50	408	0	0	knee	877	99	1	stimuli\knee\knee_05s.jpg	4	-1	1	0	knee_05s.jpg	0	0.0	0	74.3880815824377	74.4380614925758	0.0499799101380631	80470
80.57	50	409	0	0	candle	253	100	1	stimuli\candle\candle_09n.jpg	8	-1	1	0	candle_09n.jpg	0	0.0	0	74.48808065598129	74.53807007463179	0.0499894186505117	80570
80.67	50	410	0	0	cannonball	261	101	1	stimuli\cannonball\cannonball_06s.jpg	5	-1	1	0	cannonball_06s.jpg	0	0.0	0	74.5881136189564	74.6381179100135	0.05000429105712099	80670
80.77	50	411	0	0	pedometer	1137	102	1	stimuli\pedometer\pedometer_09s.jpg	8	-1	1	0	pedometer_09s.jpg	0	0.0	0	74.6880927001475	74.73807187884809	0.0499791787005961	80770
80.87	50	412	0	0	airbag	7	103	1	stimuli\airbag\airbag_11s.jpg	10	-1	1	0	airbag_11s.jpg	0	0.0	0	74.78812444407959	74.8381033789483	0.0499789348687045	80870
80.97	50	413	0	0	highlighter	778	104	1	stimuli\highlighter\highlighter_07s.jpg	6	-1	1	0	highlighter_07s.jpg	0	0.0	0	74.8881222985801	74.9381039153668	0.0499816167866811	80970
81.07	50	414	0	0	wig	1816	105	1	stimuli\wig\wig_06s.jpg	5	-1	1	0	wig_06s.jpg	0	0.0	0	74.988126004464	75.0381025012466	0.0499764967826195	81070
81.17	50	415	0	0	pheasant	1160	106	1	stimuli\pheasant\pheasant_11s.jpg	10	-1	1	0	pheasant_11s.jpg	0	0.0	0	75.088125809445	75.13809450430558	0.0499686948605813	81170
81.27	50	416	0	0	clove	365	107	1	stimuli\clove\clove_12s.jpg	11	-1	1	0	clove_12s.jpg	0	0.0	0	75.188115374418	75.2381108882837	0.0499955138657242	81270
81.37	50	417	0	0	whisk	1811	108	1	stimuli\whisk\whisk_07s.jpg	6	-1	1	0	whisk_07s.jpg	0	0.0	0	75.2881332212128	75.338115325605	0.0499821043922566	81370
81.47	50	418	0	0	headlamp	764	109	1	stimuli\headlamp\headlamp_12s.jpg	11	-1	1	0	headlamp_12s.jpg	0	0.0	0	75.38813522044799	75.4381146429805	0.0499794225324877	81470
81.57	50	419	0	0	log	943	110	1	stimuli\log\log_09s.jpg	8	-1	1	0	log_09s.jpg	0	0.0	0	75.48812819877641	75.5381068898132	0.049978691036812996	81570
81.67	50	420	0	0	power_line	1237	111	1	stimuli\power_line\power_line_03s.jpg	2	-1	1	0	power_line_03s.jpg	0	0.0	0	75.58813166082841	75.63811108336091	0.0499794225324877	81670
81.77	50	421	0	0	sushi	1588	112	1	stimuli\sushi\sushi_09s.jpg	8	-1	1	0	sushi_09s.jpg	0	0.0	0	75.6881343915011	75.73811625211971	0.0499818606185727	81770
81.87	50	422	0	0	pants	1108	113	1	stimuli\pants\pants_07s.jpg	6	-1	1	0	pants_07s.jpg	0	0.0	0	75.78813809738492	75.8381136189564	0.0499755215714686	81870
81.97	50	423	0	0	shutter	1440	114	1	stimuli\shutter\shutter_12s.jpg	11	-1	1	0	shutter_12s.jpg	0	0.0	0	75.88814034045208	75.93811732484029	0.049976984388195	81970
82.07	50	424	0	0	retainer	1303	115	1	stimuli\retainer\retainer_08s.jpg	7	-1	1	0	retainer_08s.jpg	0	0.0	0	75.98814112064429	76.03812103078229	0.0499799101380631	82070
82.17	50	425	0	0	bat2	88	116	1	stimuli\bat2\bat2_07s.jpg	6	-1	1	0	bat2_07s.jpg	0	0.0	0	76.0881431198795	76.1381242490606	0.0499811291811056	82170
82.27	50	426	0	0	stereo	1549	117	1	stimuli\stereo\stereo_10s.jpg	9	-1	1	0	stereo_10s.jpg	0	0.0	0	76.1881463381578	76.23812893015571	0.0499825919978321	82270
82.37	50	427	0	0	toothbrush	1679	118	1	stimuli\toothbrush\toothbrush_01s.jpg	0	-1	1	0	toothbrush_01s.jpg	0	0.0	0	76.2881554078776	76.3381319046603	0.0499764967826195	82370
82.47	50	428	0	0	bed	108	119	1	stimuli\bed\bed_11n.jpg	10	-1	1	0	bed_11n.jpg	0	0.0	0	76.3881503366283	76.43812951532891	0.0499791787005961	82470
82.57	50	429	0	0	headband	762	120	1	stimuli\headband\headband_10s.jpg	9	-1	1	0	headband_10s.jpg	0	0.0	0	76.4881562368246	76.5381359031308	0.0499796663061716	82570
82.67	50	430	0	0	rat	1285	121	1	stimuli\rat\rat_01b.jpg	0	-1	1	0	rat_01b.jpg	0	0.0	0	76.5881570170168	76.6381371709285	0.049980153911747004	82670
82.77	50	431	0	0	mongoose	1016	122	1	stimuli\mongoose\mongoose_02s.jpg	1	-1	1	0	mongoose_02s.jpg	0	0.0	0	76.6881604790688	76.7381374635152	0.0499769844464026	82770
82.87	50	432	0	0	subway	1578	123	1	stimuli\subway\subway_09s.jpg	8	-1	1	0	subway_09s.jpg	0	0.0	0	76.7881661354913	76.83814604557121	0.0499799100798555	82870
82.97	50	433	0	0	kaleidoscope	861	124	1	stimuli\kaleidoscope\kaleidoscope_03s.jpg	2	-1	1	0	kaleidoscope_03s.jpg	0	0.0	0	76.8881644775392	76.9381460943259	0.0499816167866811	82970
83.07	50	434	0	0	juicer2	856	125	1	stimuli\juicer2\juicer2_07s.jpg	6	-1	1	0	juicer2_07s.jpg	0	0.0	0	76.9881659891689	77.038149800268	0.0499838110990822	83070
83.17	50	435	0	0	shower_cap	1434	126	1	stimuli\shower_cap\shower_cap_04s.jpg	3	-1	1	0	shower_cap_04s.jpg	0	0.0	0	77.0881701827166	77.13814814237409	0.0499779596575536	83170
83.27	50	436	0	0	arm	36	127	1	stimuli\arm\arm_12s.jpg	11	-1	1	0	arm_12s.jpg	0	0.0	0	77.1881702314713	77.23815209203171	0.049981860560364993	83270
83.37	50	437	0	0	dolly	501	128	1	stimuli\dolly\dolly_02s.jpg	1	-1	1	0	dolly_02s.jpg	0	0.0	0	77.2881790573592	77.33816043031399	0.0499813729547895	83370
83.47	50	438	0	0	crowbar	447	129	1	stimuli\crowbar\crowbar_05n.jpg	4	-1	1	0	crowbar_05n.jpg	0	0.0	0	77.38818471372359	77.4381621857756	0.0499774720519781	83470
83.57	50	439	0	0	paintbrush	1097	130	1	stimuli\paintbrush\paintbrush_12s.jpg	11	-1	1	0	paintbrush_12s.jpg	0	0.0	0	77.4881842748728	77.53816857357741	0.0499842987046577	83570
83.67	50	440	0	0	electric_chair	553	131	1	stimuli\electric_chair\electric_chair_08s.jpg	7	-1	1	0	electric_chair_08s.jpg	0	0.0	0	77.5881874931511	77.63816569658229	0.0499782034312375	83670
83.77	50	441	0	0	pogo_stick	1208	132	1	stimuli\pogo_stick\pogo_stick_08s.jpg	7	-1	1	0	pogo_stick_08s.jpg	0	0.0	0	77.6881882733433	77.7381691586925	0.0499808853492141	83770
83.87	50	442	0	0	skin	1456	133	1	stimuli\skin\skin_01b.jpg	0	-1	1	0	skin_01b.jpg	0	0.0	0	77.7881931982702	77.8381723769708	0.0499791787005961	83870
83.97	50	443	0	0	keyboard	870	134	1	stimuli\keyboard\keyboard_04s.jpg	3	-1	1	0	keyboard_04s.jpg	0	0.0	0	77.88819519750541	77.93817730189771	0.0499821043922566	83970
84.07	50	444	0	0	sweeper	1594	135	1	stimuli\sweeper\sweeper_05s.jpg	4	-1	1	0	sweeper_05s.jpg	0	0.0	0	77.9881957339239	78.0381768630468	0.04998112912289799	84070
84.17	50	445	0	0	kilt	872	136	1	stimuli\kilt\kilt_03s.jpg	2	-1	1	0	kilt_03s.jpg	0	0.0	0	78.0882021217258	78.138179106114	0.049976984388195	84170
84.27	50	446	0	0	cape	266	137	1	stimuli\cape\cape_05s.jpg	4	-1	1	0	cape_05s.jpg	0	0.0	0	78.1882004637737	78.2381820805604	0.0499816167866811	84270
84.37	50	447	0	0	baklava	57	138	1	stimuli\baklava\baklava_10s.jpg	9	-1	1	0	baklava_10s.jpg	0	0.0	0	78.28820490115321	78.338188956026	0.0499840548727661	84370
84.47	50	448	0	0	gazelle	666	139	1	stimuli\gazelle\gazelle_05s.jpg	4	-1	1	0	gazelle_05s.jpg	0	0.0	0	78.3882095822482	78.43818802951141	0.0499784472631291	84470
84.57	50	449	0	0	headphones	766	140	1	stimuli\headphones\headphones_03s.jpg	2	-1	1	0	headphones_03s.jpg	0	0.0	0	78.4882113377098	78.5381888097036	0.0499774719937705	84570
84.67	50	450	0	0	steering_wheel	1546	141	1	stimuli\steering_wheel\steering_wheel_04s.jpg	3	-1	1	0	steering_wheel_04s.jpg	0	0.0	0	78.58820553502301	78.6381912966026	0.0499857615795918	84670
84.77	50	451	0	0	dynamite	536	142	1	stimuli\dynamite\dynamite_02s.jpg	1	-1	1	0	dynamite_02s.jpg	0	0.0	0	78.6882150923484	78.7381964653032	0.0499813729547895	84770
84.87	50	452	0	0	camera_lens	248	143	1	stimuli\camera_lens\camera_lens_06s.jpg	5	-1	1	0	camera_lens_06s.jpg	0	0.0	0	78.78821757918921	78.8381955388468	0.0499779596575536	84870
84.97	50	453	0	0	lunchbox	950	144	1	stimuli\lunchbox\lunchbox_02s.jpg	1	-1	1	0	lunchbox_02s.jpg	0	0.0	0	78.88821909081891	78.938199000957	0.0499799101380631	84970
85.07	50	454	0	0	candelabra	252	145	1	stimuli\candelabra\candelabra_01b.jpg	0	-1	1	0	candelabra_01b.jpg	0	0.0	0	78.9882254786207	79.0382041697158	0.0499786910950206	85070
85.17	50	455	0	0	sandpaper	1356	146	1	stimuli\sandpaper\sandpaper_06s.jpg	5	-1	1	0	sandpaper_06s.jpg	0	0.0	0	79.0882269902504	79.1382059251191	0.0499789348687045	85170
85.27	50	456	0	0	otter	1085	147	1	stimuli\otter\otter_02s.jpg	1	-1	1	0	otter_02s.jpg	0	0.0	0	79.1882333780522	79.2381920767366	0.0499586986843497	85270
85.37	50	457	0	0	hearing_aid	770	148	1	stimuli\hearing_aid\hearing_aid_11s.jpg	10	-1	1	0	hearing_aid_11s.jpg	0	0.0	0	79.2882326953695	79.33820992358959	0.0499772282200865	85370
85.47	50	458	0	0	sawhorse	1367	149	1	stimuli\sawhorse\sawhorse_09s.jpg	8	-1	1	0	sawhorse_09s.jpg	0	0.0	0	79.3882334755617	79.43821094761371	0.0499774720519781	85470
85.57	50	459	0	0	bunkbed	222	150	1	stimuli\bunkbed\bunkbed_07s.jpg	6	-1	1	0	bunkbed_07s.jpg	0	0.0	0	79.48823425575391	79.538214165892	0.0499799101380631	85570
85.67	50	460	0	0	fuse	652	151	1	stimuli\fuse\fuse_02s.jpg	1	-1	1	0	fuse_02s.jpg	0	0.0	0	79.58823893690709	79.6382193346508	0.0499803977436386	85670
85.77	50	461	0	0	perfume	1154	152	1	stimuli\perfume\perfume_11s.jpg	10	-1	1	0	perfume_11s.jpg	0	0.0	0	79.6882445932715	79.73821913957359	0.049974546302110005	85770
85.87	50	462	0	0	oven	1089	153	1	stimuli\oven\oven_08s.jpg	7	-1	1	0	oven_08s.jpg	0	0.0	0	79.78824342298321	79.83822308928941	0.0499796663061716	85870
85.97	50	463	0	0	buffet	211	154	1	stimuli\buffet\buffet_07s.jpg	6	-1	1	0	buffet_07s.jpg	0	0.0	0	79.888242008863	79.93822923325929	0.0499872243963182	85970
86.07	50	464	0	0	plum	1203	155	1	stimuli\plum\plum_04s.jpg	3	-1	1	0	plum_04s.jpg	0	0.0	0	79.9882481528912	80.0382309887209	0.0499828358297236	86070
86.17	50	465	0	0	airplane	10	156	1	stimuli\airplane\airplane_10n.jpg	9	-1	1	0	airplane_10n.jpg	0	0.0	0	80.088250639732	80.1382283555577	0.049977715825661996	86170
86.27	50	466	0	0	mantle	969	157	1	stimuli\mantle\mantle_03s.jpg	2	-1	1	0	mantle_03s.jpg	0	0.0	0	80.1882277704426	80.2382318176678	0.0500040472252294	86270
86.37	50	467	0	0	cellphone	293	158	1	stimuli\cellphone\cellphone_06s.jpg	5	-1	1	0	cellphone_06s.jpg	0	0.0	0	80.2882570762886	80.3382338169031	0.0499767406145111	86370
86.47	50	468	0	0	tripod	1714	159	1	stimuli\tripod\tripod_07s.jpg	6	-1	1	0	tripod_07s.jpg	0	0.0	0	80.3882571250433	80.4382392294356	0.0499821043922566	86470
86.57	50	469	0	0	hopscotch	796	160	1	stimuli\hopscotch\hopscotch_08s.jpg	7	-1	1	0	hopscotch_08s.jpg	0	0.0	0	80.48829740233491	80.5382429353776	0.0499455330427736	86570
86.67	50	470	0	0	tulip	1726	161	1	stimuli\tulip\tulip_11s.jpg	10	-1	1	0	tulip_11s.jpg	0	0.0	0	80.5882645368692	80.63824347173801	0.0499789348687045	86670
86.77	50	471	0	0	snow	1479	162	1	stimuli\snow\snow_04s.jpg	3	-1	1	0	snow_04s.jpg	0	0.0	0	80.688264585624	80.73824449576199	0.0499799101380631	86770
86.87	50	472	0	0	bracelet2	188	163	1	stimuli\bracelet2\bracelet2_09s.jpg	8	-1	1	0	bracelet2_09s.jpg	0	0.0	0	80.7882670724648	80.83824698260291	0.0499799101380631	86870
86.97	50	473	0	0	periscope	1155	164	1	stimuli\periscope\periscope_08s.jpg	7	-1	1	0	periscope_08s.jpg	0	0.0	0	80.8882693155319	80.9382492256118	0.0499799100798555	86970
87.07	50	474	0	0	broom	203	165	1	stimuli\broom\broom_11s.jpg	10	-1	1	0	broom_11s.jpg	0	0.0	0	80.98827521572821	81.03825610107741	0.0499808853492141	87070
87.17	50	475	0	0	saltshaker	1350	166	1	stimuli\saltshaker\saltshaker_11s.jpg	10	-1	1	0	saltshaker_11s.jpg	0	0.0	0	81.0882735577761	81.1382522488711	0.0499786910950206	87170
87.27	50	476	0	0	headset	769	167	1	stimuli\headset\headset_03s.jpg	2	-1	1	0	headset_03s.jpg	0	0.0	0	81.1882787265349	81.2382403509691	0.0499616244342178	87270
87.37	50	477	0	0	clover	366	168	1	stimuli\clover\clover_09s.jpg	8	-1	1	0	clover_09s.jpg	0	0.0	0	81.2882834076881	81.3382591730333	0.0499757653451525	87370
87.47	50	478	0	0	backgammon	48	169	1	stimuli\backgammon\backgammon_05s.jpg	4	-1	1	0	backgammon_05s.jpg	0	0.0	0	81.38826078217241	81.43824727518951	0.0499864930170588	87470
87.57	50	479	0	0	toaster	1666	170	1	stimuli\toaster\toaster_06s.jpg	5	-1	1	0	toaster_06s.jpg	0	0.0	0	81.48826765763809	81.5382707295939	0.0500030719558708	87570
87.67	50	480	0	0	seed	1401	171	1	stimuli\seed\seed_04s.jpg	3	-1	1	0	seed_04s.jpg	0	0.0	0	81.5882947691716	81.63826005079319	0.049965281621553004	87670
87.77	50	481	0	0	badge	52	172	1	stimuli\badge\badge_04s.jpg	3	-1	1	0	badge_04s.jpg	0	0.0	0	81.6882931112777	81.73829081951409	0.049997708236333004	87770
87.87	50	482	0	0	cactus	235	173	1	stimuli\cactus\cactus_08n.jpg	7	-1	1	0	cactus_08n.jpg	0	0.0	0	81.7882938914699	81.83827111968999	0.0499772282200865	87870
87.97	50	483	0	0	measuring_cup	986	174	1	stimuli\measuring_cup\measuring_cup_02s.jpg	1	-1	1	0	measuring_cup_02s.jpg	0	0.0	0	81.8882802869193	81.93828384653901	0.050003559619654005	87970
88.07	50	484	0	0	figurine	582	175	1	stimuli\figurine\figurine_07s.jpg	6	-1	1	0	figurine_07s.jpg	0	0.0	0	81.9883017909015	82.0382639029413	0.0499621120397933	88070
88.17	50	485	0	0	pinwheel	1185	176	1	stimuli\pinwheel\pinwheel_02s.jpg	1	-1	1	0	pinwheel_02s.jpg	0	0.0	0	82.0882823349093	82.1382634640904	0.0499811291811056	88170
88.27	50	486	0	0	flatiron	613	177	1	stimuli\flatiron\flatiron_05s.jpg	4	-1	1	0	flatiron_05s.jpg	0	0.0	0	82.18828750366809	82.2382535166689	0.0499660130008124	88270
88.37	50	487	0	0	tuxedo	1738	178	1	stimuli\tuxedo\tuxedo_04s.jpg	3	-1	1	0	tuxedo_04s.jpg	0	0.0	0	82.2883073010016	82.33828745491341	0.049980153911747004	88370
88.47	50	488	0	0	bark	74	179	1	stimuli\bark\bark_09s.jpg	8	-1	1	0	bark_09s.jpg	0	0.0	0	82.38831271353409	82.4382765322807	0.0499638187466189	88470
88.57	50	489	0	0	scuba	1392	180	1	stimuli\scuba\scuba_03s.jpg	2	-1	1	0	scuba_03s.jpg	0	0.0	0	82.4883125185152	82.53829486673929	0.0499823482241482	88570
88.67	50	490	0	0	nail_clippers	1047	181	1	stimuli\nail_clippers\nail_clippers_12s.jpg	11	-1	1	0	nail_clippers_12s.jpg	0	0.0	0	82.5883242700947	82.6382805307512	0.0499562606564723	88670
88.77	50	491	0	0	origami	1083	182	1	stimuli\origami\origami_03s.jpg	2	-1	1	0	origami_03s.jpg	0	0.0	0	82.6883199302829	82.73830105946399	0.0499811291811056	88770
88.87	50	492	0	0	tab	1607	183	1	stimuli\tab\tab_09s.jpg	8	-1	1	0	tab_09s.jpg	0	0.0	0	82.78832436766241	82.8382862358703	0.0499618682079017	88870
88.97	50	493	0	0	bulletproof_vest	218	184	1	stimuli\bulletproof_vest\bulletproof_vest_08s.jpg	7	-1	1	0	bulletproof_vest_08s.jpg	0	0.0	0	82.8883217344992	82.9383026198484	0.0499808853492141	88970
89.07	50	494	0	0	pecan	1135	185	1	stimuli\pecan\pecan_06s.jpg	5	-1	1	0	pecan_06s.jpg	0	0.0	0	82.9883249527775	83.038305594353	0.0499806415755302	89070
89.17	50	495	0	0	brownie	204	186	1	stimuli\brownie\brownie_06s.jpg	5	-1	1	0	brownie_06s.jpg	0	0.0	0	83.088315005356	83.1383080811938	0.0499930758378468	89170
89.27	50	496	0	0	pear	1133	187	1	stimuli\pear\pear_06s.jpg	5	-1	1	0	pear_06s.jpg	0	0.0	0	83.18831554171629	83.2383108118665	0.049995270150247996	89270
89.37	50	497	0	0	soy_sauce	1500	188	1	stimuli\soy_sauce\soy_sauce_10s.jpg	9	-1	1	0	soy_sauce_10s.jpg	0	0.0	0	83.2883353390498	83.3383159806253	0.0499806415755302	89370
89.47	50	498	0	0	patty	1126	189	1	stimuli\patty\patty_09s.jpg	8	-1	1	0	patty_09s.jpg	0	0.0	0	83.38833221828101	83.4383121284191	0.0499799101380631	89470
89.57	50	499	0	0	gauze	664	190	1	stimuli\gauze\gauze_07s.jpg	6	-1	1	0	gauze_07s.jpg	0	0.0	0	83.48833787464541	83.53832266095559	0.0499847863102332	89570
89.67	50	500	0	0	scone	1380	191	1	stimuli\scone\scone_03s.jpg	2	-1	1	0	scone_03s.jpg	0	0.0	0	83.5883374357945	83.63834172685159	0.05000429105712099	89670
89.77	50	501	0	0	coat	369	192	1	stimuli\coat\coat_06s.jpg	5	-1	1	0	coat_06s.jpg	0	0.0	0	83.6883389474242	83.7383210518165	0.0499821043922566	89770
89.87	50	502	0	0	bologna	158	193	1	stimuli\bologna\bologna_09s.jpg	8	-1	1	0	bologna_09s.jpg	0	0.0	0	83.78834606666351	83.8383247577003	0.049978691036812996	89870
89.97	50	503	0	0	dog	495	194	1	stimuli\dog\dog_11s.jpg	10	-1	1	0	dog_11s.jpg	0	0.0	0	83.88834757829319	83.9383252941188	0.049977715825661996	89970
90.07	50	504	0	0	coaster	368	195	1	stimuli\coaster\coaster_06s.jpg	5	-1	1	0	coaster_06s.jpg	0	0.0	0	83.98835616034921	84.0383270495222	0.0499708891729824	90070
90.17	50	505	0	0	rocking_horse	1322	196	1	stimuli\rocking_horse\rocking_horse_08s.jpg	7	-1	1	0	rocking_horse_08s.jpg	0	0.0	0	84.0883493824513	84.1383314868435	0.0499821043922566	90170
90.27	50	506	0	0	doormat	511	197	1	stimuli\doormat\doormat_04s.jpg	3	-1	1	0	doormat_04s.jpg	0	0.0	0	84.1883545512101	84.2383356803912	0.0499811291811056	90270
90.37	50	507	0	0	lime	930	198	1	stimuli\lime\lime_06s.jpg	5	-1	1	0	lime_06s.jpg	0	0.0	0	84.2883560628397	84.33833670435709	0.0499806415173225	90370
90.47	50	508	0	0	tile	1660	199	1	stimuli\tile\tile_12s.jpg	11	-1	1	0	tile_12s.jpg	0	0.0	0	84.38835611159449	84.4383360217325	0.0499799101380631	90470
90.57	50	509	0	0	hotplate	806	200	1	stimuli\hotplate\hotplate_05s.jpg	4	-1	1	0	hotplate_05s.jpg	0	0.0	0	84.4883603050839	84.5383407028276	0.0499803977436386	90570
90.67	50	510	0	0	spaghetti	1503	201	1	stimuli\spaghetti\spaghetti_07s.jpg	6	-1	1	0	spaghetti_07s.jpg	0	0.0	0	84.588387172902	84.63834123924609	0.0499540663440712	90670
90.77	50	511	0	0	hard_disk	752	202	1	stimuli\hard_disk\hard_disk_02s.jpg	1	-1	1	0	hard_disk_02s.jpg	0	0.0	0	84.68837137403901	84.7383439699188	0.0499725958798081	90770
90.87	50	512	0	0	porthole	1227	203	1	stimuli\porthole\porthole_08s.jpg	7	-1	1	0	porthole_08s.jpg	0	0.0	0	84.78837117901999	84.8383515767637	0.0499803977436386	90870
90.97	50	513	0	0	hummus	812	204	1	stimuli\hummus\hummus_11s.jpg	10	-1	1	0	hummus_11s.jpg	0	0.0	0	84.8883722029859	84.93835040647541	0.0499782034894451	90970
91.07	50	514	0	0	grits	717	205	1	stimuli\grits\grits_09s.jpg	8	-1	1	0	grits_09s.jpg	0	0.0	0	84.98837322701	85.0383548437967	0.0499816167866811	91070
91.17	50	515	0	0	peg	1139	206	1	stimuli\peg\peg_10s.jpg	9	-1	1	0	peg_10s.jpg	0	0.0	0	85.0883774204995	85.138354161114	0.0499767406145111	91170
91.27	50	516	0	0	shell3	1419	207	1	stimuli\shell3\shell3_10s.jpg	9	-1	1	0	shell3_10s.jpg	0	0.0	0	85.1883784445236	85.23835811082971	0.0499796663061716	91270
91.37	50	517	0	0	bottle	170	208	1	stimuli\bottle\bottle_11s.jpg	10	-1	1	0	bottle_11s.jpg	0	0.0	0	85.2883792247158	85.3383610852761	0.049981860560364993	91370
91.47	50	518	0	0	headscarf	768	209	1	stimuli\headscarf\headscarf_12s.jpg	11	-1	1	0	headscarf_12s.jpg	0	0.0	0	85.38838926964671	85.4383652788238	0.049976009177044006	91470
91.57	50	519	0	0	tack	1611	210	1	stimuli\tack\tack_03s.jpg	2	-1	1	0	tack_03s.jpg	0	0.0	0	85.4883883431903	85.5383702037507	0.049981860560364993	91570
91.67	50	520	0	0	dessert	481	211	1	stimuli\dessert\dessert_06s.jpg	5	-1	1	0	dessert_06s.jpg	0	0.0	0	85.5883874166757	85.6383427020628	0.0499552853871137	91670
91.77	50	521	0	0	jellyfish	845	212	1	stimuli\jellyfish\jellyfish_05s.jpg	4	-1	1	0	jellyfish_05s.jpg	0	0.0	0	85.6883716178709	85.73837956605709	0.0500079481862485	91770
91.87	50	522	0	0	chime	328	213	1	stimuli\chime\chime_03s.jpg	2	-1	1	0	chime_03s.jpg	0	0.0	0	85.7883955599391	85.8383759576827	0.0499803977436386	91870
91.97	50	523	0	0	toast	1665	214	1	stimuli\toast\toast_08s.jpg	7	-1	1	0	toast_08s.jpg	0	0.0	0	85.88838341820521	85.93836308451141	0.0499796663061716	91970
92.07	50	524	0	0	sunroof	1586	215	1	stimuli\sunroof\sunroof_06s.jpg	5	-1	1	0	sunroof_06s.jpg	0	0.0	0	85.9883985831402	86.038383857056	0.0499852739158086	92070
92.17	50	525	0	0	toad	1664	216	1	stimuli\toad\toad_10s.jpg	9	-1	1	0	toad_10s.jpg	0	0.0	0	86.08840399573091	86.1383668392082	0.0499628434772603	92170
92.27	50	526	0	0	nightstand	1059	217	1	stimuli\nightstand\nightstand_01b.jpg	0	-1	1	0	nightstand_01b.jpg	0	0.0	0	86.18839331687201	86.2383907812764	0.0499974644044414	92270
92.37	50	527	0	0	tweezers	1739	218	1	stimuli\tweezers\tweezers_08s.jpg	7	-1	1	0	tweezers_08s.jpg	0	0.0	0	86.2884116513305	86.3383918052423	0.049980153911747004	92370
92.47	50	528	0	0	sticker	1553	219	1	stimuli\sticker\sticker_09s.jpg	8	-1	1	0	sticker_09s.jpg	0	0.0	0	86.3884131629602	86.43839063495399	0.0499774719937705	92470
92.57	50	529	0	0	roadsweeper	1316	220	1	stimuli\roadsweeper\roadsweeper_12s.jpg	11	-1	1	0	roadsweeper_12s.jpg	0	0.0	0	86.48841906309829	86.5383938532323	0.0499747901340015	92570
92.67	50	530	0	0	icemaker	821	221	1	stimuli\icemaker\icemaker_04s.jpg	3	-1	1	0	icemaker_04s.jpg	0	0.0	0	86.5884159423877	86.6383973153424	0.0499813729547895	92670
92.77	50	531	0	0	chandelier	305	222	1	stimuli\chandelier\chandelier_03s.jpg	2	-1	1	0	chandelier_03s.jpg	0	0.0	0	86.68840331304821	86.7384007774526	0.0499974644044414	92770
92.87	50	532	0	0	chinchilla	332	223	1	stimuli\chinchilla\chinchilla_03s.jpg	2	-1	1	0	chinchilla_03s.jpg	0	0.0	0	86.7884262799053	86.8384054585476	0.0499791786423884	92870
92.97	50	533	0	0	breadstick	196	224	1	stimuli\breadstick\breadstick_10s.jpg	9	-1	1	0	breadstick_10s.jpg	0	0.0	0	86.88842194009341	86.9384062387398	0.049984298646449994	92970
93.07	50	534	0	0	mop	1019	225	1	stimuli\mop\mop_01b.jpg	0	-1	1	0	mop_01b.jpg	0	0.0	0	86.9884261335828	87.03839117137251	0.0499650377896614	93070
93.17	50	535	0	0	rollerblade	1326	226	1	stimuli\rollerblade\rollerblade_02s.jpg	1	-1	1	0	rollerblade_02s.jpg	0	0.0	0	87.08843178994721	87.1384104810422	0.0499786910950206	93170
93.27	50	536	0	0	rollerskate	1327	227	1	stimuli\rollerskate\rollerskate_09s.jpg	8	-1	1	0	rollerskate_09s.jpg	0	0.0	0	87.18842988827959	87.2384127241094	0.0499828358297236	93270
93.37	50	537	0	0	leash	907	228	1	stimuli\leash\leash_12s.jpg	11	-1	1	0	leash_12s.jpg	0	0.0	0	87.2884348132065	87.3384144795127	0.0499796663061716	93370
93.47	50	538	0	0	skewer	1451	229	1	stimuli\skewer\skewer_03s.jpg	2	-1	1	0	skewer_03s.jpg	0	0.0	0	87.3884421762195	87.43841623491609	0.0499740586965345	93470
93.57	50	539	0	0	coffee_table	381	230	1	stimuli\coffee_table\coffee_table_05s.jpg	4	-1	1	0	coffee_table_05s.jpg	0	0.0	0	87.48844222497429	87.53841872181509	0.0499764968408272	93570
93.67	50	540	0	0	cash_machine	279	231	1	stimuli\cash_machine\cash_machine_09s.jpg	8	-1	1	0	cash_machine_09s.jpg	0	0.0	0	87.58844178612341	87.6384102372103	0.0499684510868974	93670
93.77	50	541	0	0	egg_roll	547	232	1	stimuli\egg_roll\egg_roll_03n.jpg	2	-1	1	0	egg_roll_03n.jpg	0	0.0	0	87.6884272063617	87.7384236954967	0.0499964891350828	93770
93.87	50	542	0	0	cord	407	233	1	stimuli\cord\cord_07s.jpg	6	-1	1	0	cord_07s.jpg	0	0.0	0	87.788449685555	87.8384122852585	0.0499625997035764	93870
93.97	50	543	0	0	chair	300	234	1	stimuli\chair\chair_09s.jpg	8	-1	1	0	chair_09s.jpg	0	0.0	0	87.8884324238752	87.9384352520574	0.0500028281821869	93970
94.07	50	544	0	0	playing_card	1199	235	1	stimuli\playing_card\playing_card_08s.jpg	7	-1	1	0	playing_card_08s.jpg	0	0.0	0	87.98845319641991	88.0384331065579	0.0499799101380631	94070
94.17	50	545	0	0	wedge	1801	236	1	stimuli\wedge\wedge_08s.jpg	7	-1	1	0	wedge_08s.jpg	0	0.0	0	88.0884371537832	88.13843315531271	0.0499960015295073	94170
94.27	50	546	0	0	skirt	1457	237	1	stimuli\skirt\skirt_03s.jpg	2	-1	1	0	skirt_03s.jpg	0	0.0	0	88.1884608520195	88.2384397868882	0.0499789348687045	94270
94.37	50	547	0	0	volleyball	1767	238	1	stimuli\volleyball\volleyball_08s.jpg	7	-1	1	0	volleyball_08s.jpg	0	0.0	0	88.28845968173121	88.33844593091641	0.0499862491851673	94370
94.47	50	548	0	0	pallet	1101	239	1	stimuli\pallet\pallet_08s.jpg	7	-1	1	0	pallet_08s.jpg	0	0.0	0	88.3884641190525	88.4384272063617	0.0499630873091519	94470
94.57	50	549	0	0	flag	605	240	1	stimuli\flag\flag_11s.jpg	10	-1	1	0	flag_11s.jpg	0	0.0	0	88.4884651430766	88.5384457845939	0.0499806415173225	94570
94.67	50	550	0	0	stiletto	1554	241	1	stimuli\stiletto\stiletto_08s.jpg	7	-1	1	0	stiletto_08s.jpg	0	0.0	0	88.5884678737493	88.638446808618	0.0499789348687045	94670
94.77	50	551	0	0	tape_recorder	1624	242	1	stimuli\tape_recorder\tape_recorder_06s.jpg	5	-1	1	0	tape_recorder_06s.jpg	0	0.0	0	88.68846889771521	88.7384507583338	0.0499818606185727	94770
94.87	50	552	0	0	plate	1197	243	1	stimuli\plate\plate_06s.jpg	5	-1	1	0	plate_06s.jpg	0	0.0	0	88.78847187221979	88.83845397661209	0.0499821043922566	94870
94.97	50	553	0	0	reindeer	1301	244	1	stimuli\reindeer\reindeer_03s.jpg	2	-1	1	0	reindeer_03s.jpg	0	0.0	0	88.8884650943219	88.93845621962099	0.0499911252991296	94970
95.07	50	554	0	0	rim	1312	245	1	stimuli\rim\rim_02s.jpg	1	-1	1	0	rim_02s.jpg	0	0.0	0	88.9884814782999	89.03845895029372	0.0499774719937705	95070
95.17	50	555	0	0	crouton	445	246	1	stimuli\crouton\crouton_04n.jpg	3	-1	1	0	crouton_04n.jpg	0	0.0	0	89.0884810394491	89.1384441267001	0.0499630872509442	95170
95.27	50	556	0	0	football	629	247	1	stimuli\football\football_11s.jpg	10	-1	1	0	football_11s.jpg	0	0.0	0	89.18848230724691	89.2384648992447	0.0499825919978321	95270
95.37	50	557	0	0	backdrop	47	248	1	stimuli\backdrop\backdrop_07s.jpg	6	-1	1	0	backdrop_07s.jpg	0	0.0	0	89.2884850379196	89.3384700680035	0.0499850300839171	95370
95.47	50	558	0	0	eggnog	549	249	1	stimuli\eggnog\eggnog_06s.jpg	5	-1	1	0	eggnog_06s.jpg	0	0.0	0	89.388471433369	89.4384664596291	0.0499950262601487	95470
95.57	50	559	0	0	mast	981	250	1	stimuli\mast\mast_02s.jpg	1	-1	1	0	mast_02s.jpg	0	0.0	0	89.4884902554331	89.538471384556	0.04998112912289799	95570
95.67	50	560	0	0	hockey_stick	783	251	1	stimuli\hockey_stick\hockey_stick_09s.jpg	8	-1	1	0	hockey_stick_09s.jpg	0	0.0	0	89.58847640705059	89.63847167714269	0.0499952700920403	95670
95.77	50	561	0	0	corkboard	410	252	1	stimuli\corkboard\corkboard_02s.jpg	1	-1	1	0	corkboard_02s.jpg	0	0.0	0	89.68849449767728	89.7384746516473	0.0499801539699547	95770
95.87	50	562	0	0	clay	352	253	1	stimuli\clay\clay_10s.jpg	9	-1	1	0	clay_10s.jpg	0	0.0	0	89.7885018607485	89.8384603156592	0.0499584549106658	95870
95.97	50	563	0	0	pickle	1167	254	1	stimuli\pickle\pickle_10n.jpg	9	-1	1	0	pickle_10n.jpg	0	0.0	0	89.88849703333109	89.93846402154301	0.0499669882119633	95970
96.07	50	564	0	0	skateboard	1449	255	1	stimuli\skateboard\skateboard_09s.jpg	8	-1	1	0	skateboard_09s.jpg	0	0.0	0	89.9885036649066	90.0384879636113	0.0499842987046577	96070
96.17	50	565	0	0	spider_web	1514	256	1	stimuli\spider_web\spider_web_07s.jpg	6	-1	1	0	spider_web_07s.jpg	0	0.0	0	90.08850395749322	90.1384850866743	0.0499811291811056	96170
96.27	50	566	0	0	whip	1809	257	1	stimuli\whip\whip_07s.jpg	6	-1	1	0	whip_07s.jpg	0	0.0	0	90.188507907209	90.23848903639009	0.0499811291811056	96270
96.37	50	567	0	0	sling	1466	258	1	stimuli\sling\sling_05s.jpg	4	-1	1	0	sling_05s.jpg	0	0.0	0	90.2885089311749	90.33847323752708	0.0499643063521944	96370
96.47	50	568	0	0	cement_mixer	294	259	1	stimuli\cement_mixer\cement_mixer_03s.jpg	2	-1	1	0	cement_mixer_03s.jpg	0	0.0	0	90.3885123932851	90.4384962043841	0.0499838110990822	96470
96.57	50	569	0	0	rubber_band	1337	260	1	stimuli\rubber_band\rubber_band_05s.jpg	4	-1	1	0	rubber_band_05s.jpg	0	0.0	0	90.4885012268205	90.5384977159556	0.0499964891350828	96570
96.67	50	570	0	0	mat	982	261	1	stimuli\mat\mat_08s.jpg	7	-1	1	0	mat_08s.jpg	0	0.0	0	90.5884968870087	90.6384748466662	0.0499779596575536	96670
96.77	50	571	0	0	porcupine	1226	262	1	stimuli\porcupine\porcupine_04s.jpg	3	-1	1	1	porcupine_04s.jpg	0	0.0	0	90.688504006248	90.7384741639835	0.0499701577355154	96770
96.87	50	572	0	0	cotton_candy	421	263	1	stimuli\cotton_candy\cotton_candy_11s.jpg	10	-1	1	0	cotton_candy_11s.jpg	0	0.0	0	90.7885042988346	90.8384834775352	0.0499791787005961	96870
96.97	50	573	0	0	magnifying_glass	958	264	1	stimuli\magnifying_glass\magnifying_glass_10s.jpg	9	-1	1	0	magnifying_glass_10s.jpg	0	0.0	0	90.88852336467241	90.938504006248	0.0499806415755302	96970
97.07	50	574	0	0	pistachio	1188	265	1	stimuli\pistachio\pistachio_07n.jpg	6	-1	1	0	pistachio_07n.jpg	0	0.0	0	90.9885338972672	91.03851112548729	0.0499772282200865	97070
97.17	50	575	0	0	pelican	1140	266	1	stimuli\pelican\pelican_01b.jpg	0	-1	1	0	pelican_01b.jpg	1	0.39219708170276096	1	91.0885349212331	91.13850971136709	0.0499747901340015	97170
97.27	50	576	0	0	bagpipe	56	267	1	stimuli\bagpipe\bagpipe_05s.jpg	4	-1	1	0	bagpipe_05s.jpg	0	0.0	0	91.18853277573359	91.2385148801259	0.0499821043922566	97270
97.37	50	577	0	0	suspenders	1589	268	1	stimuli\suspenders\suspenders_03s.jpg	2	-1	1	0	suspenders_03s.jpg	0	0.0	0	91.28853550640629	91.3385156603181	0.049980153911747004	97370
97.47	50	578	0	0	blowtorch	148	269	1	stimuli\blowtorch\blowtorch_02s.jpg	1	-1	1	0	blowtorch_02s.jpg	0	0.0	0	91.3885333608487	91.4385140024242	0.0499806415755302	97470
97.57	50	579	0	0	snowshoe	1485	270	1	stimuli\snowshoe\snowshoe_04s.jpg	3	-1	1	0	snowshoe_04s.jpg	0	0.0	0	91.4885390172713	91.5385167330969	0.049977715825661996	97570
97.67	50	580	0	0	baton2	93	271	1	stimuli\baton2\baton2_08s.jpg	7	-1	1	0	baton2_08s.jpg	0	0.0	0	91.58854150411209	91.6385180008947	0.0499764967826195	97670
97.77	50	581	0	0	magnifier	957	272	1	stimuli\magnifier\magnifier_01b.jpg	0	-1	1	0	magnifier_01b.jpg	0	0.0	0	91.68854301574171	91.7385243886965	0.0499813729547895	97770
97.87	50	582	0	0	daisy	470	273	1	stimuli\daisy\daisy_09s.jpg	8	-1	1	0	daisy_09s.jpg	0	0.0	0	91.78854940354358	91.8385312641039	0.049981860560364993	97870
97.97	50	583	0	0	desk	480	274	1	stimuli\desk\desk_08s.jpg	7	-1	1	0	desk_08s.jpg	0	0.0	0	91.8885465265485	91.93854008999192	0.0499935634434223	97970
98.07	50	584	0	0	blinder	141	275	1	stimuli\blinder\blinder_12s.jpg	11	-1	1	0	blinder_12s.jpg	0	0.0	0	91.988547062967	92.038534531137	0.0499874681700021	98070
98.17	50	585	0	0	stool	1561	276	1	stimuli\stool\stool_04s.jpg	3	-1	1	0	stool_04s.jpg	0	0.0	0	92.08855076885081	92.13853019138331	0.0499794225324877	98170
98.27	50	586	0	0	drill	520	277	1	stimuli\drill\drill_01b.jpg	0	-1	1	0	drill_01b.jpg	0	0.0	0	92.18855496239848	92.23853267822409	0.049977715825661996	98270
98.37	50	587	0	0	school_bus	1378	278	1	stimuli\school_bus\school_bus_05s.jpg	4	-1	1	0	school_bus_05s.jpg	0	0.0	0	92.2885645196657	92.33853930979971	0.0499747901340015	98370
98.47	50	588	0	0	column	388	279	1	stimuli\column\column_11s.jpg	10	-1	1	0	column_11s.jpg	0	0.0	0	92.38855920464269	92.43854301574171	0.0499838110990822	98470
98.57	50	589	0	0	duffel_bag	529	280	1	stimuli\duffel_bag\duffel_bag_11s.jpg	10	-1	1	0	duffel_bag_11s.jpg	0	0.0	0	92.48856120387791	92.5385428206646	0.0499816167866811	98570
98.67	50	590	0	0	cashew	281	281	1	stimuli\cashew\cashew_08s.jpg	7	-1	1	0	cashew_08s.jpg	0	0.0	0	92.5885644221562	92.6385431132512	0.0499786910950206	98670
98.77	50	591	0	0	syrup	1605	282	1	stimuli\syrup\syrup_06s.jpg	5	-1	1	0	syrup_06s.jpg	0	0.0	0	92.68856983474691	92.7385490134475	0.0499791787005961	98770
98.87	50	592	0	0	barnacle	75	283	1	stimuli\barnacle\barnacle_10n.jpg	9	-1	1	0	barnacle_10n.jpg	0	0.0	0	92.7885730530252	92.83855003741341	0.049976984388195	98870
98.97	50	593	0	0	drum	522	284	1	stimuli\drum\drum_01b.jpg	0	-1	1	0	drum_01b.jpg	0	0.0	0	92.8885723703424	92.93855276808608	0.0499803977436386	98970
99.07	50	594	0	0	cilantro	347	285	1	stimuli\cilantro\cilantro_06s.jpg	5	-1	1	0	cilantro_06s.jpg	0	0.0	0	92.9885787581443	93.0385528168408	0.0499740586965345	99070
99.17	50	595	0	0	squid	1528	286	1	stimuli\squid\squid_04s.jpg	3	-1	1	0	squid_04s.jpg	0	0.0	0	93.0885753936018	93.13855701038851	0.0499816167866811	99170
99.27	50	596	0	0	french_fries	641	287	1	stimuli\french_fries\french_fries_11s.jpg	10	-1	1	0	french_fries_11s.jpg	0	0.0	0	93.18855593760959	93.2385631543584	0.0500072167487815	99270
99.37	50	597	0	0	stump	1576	288	1	stimuli\stump\stump_08s.jpg	7	-1	1	0	stump_08s.jpg	0	0.0	0	93.28858646249859	93.3385624716757	0.049976009177044006	99370
99.47	50	598	0	0	snake	1477	289	1	stimuli\snake\snake_08s.jpg	7	-1	1	0	snake_08s.jpg	0	0.0	0	93.38858651125341	93.4385398462182	0.0499533349648118	99470
99.57	50	599	0	0	brace	186	290	1	stimuli\brace\brace_01b.jpg	0	-1	1	0	brace_01b.jpg	0	0.0	0	93.48858899815241	93.53856890823229	0.0499799100798555	99570
99.67	50	600	0	0	stretcher	1572	291	1	stimuli\stretcher\stretcher_05s.jpg	4	-1	1	0	stretcher_05s.jpg	0	0.0	0	93.58859124116128	93.6385692008189	0.0499779596575536	99670
99.77	50	601	0	0	calf1	241	292	1	stimuli\calf1\calf1_03s.jpg	2	-1	1	0	calf1_03s.jpg	0	0.0	0	93.6885649585747	93.73857193149159	0.0500069729168899	99770
99.87	50	602	0	0	bracket	189	293	1	stimuli\bracket\bracket_03s.jpg	2	-1	1	0	bracket_03s.jpg	0	0.0	0	93.7885967025068	93.83857295551572	0.0499762530089356	99870
99.97	50	603	0	0	earwig	541	294	1	stimuli\earwig\earwig_10n.jpg	9	-1	1	0	earwig_10n.jpg	0	0.0	0	93.88859918934759	93.93856934714131	0.049970157793723	99970
100.07	50	604	0	0	strainer	1566	295	1	stimuli\strainer\strainer_06s.jpg	5	-1	1	0	strainer_06s.jpg	0	0.0	0	93.9886002133717	94.0385842682444	0.0499840548727661	100070
100.17	50	605	0	0	woman	1832	296	1	stimuli\woman\woman_04s.jpg	3	-1	1	0	woman_04s.jpg	0	0.0	0	94.08859831164591	94.13858114747559	0.0499828358297236	100170
100.27	50	606	0	0	gyro	730	297	1	stimuli\gyro\gyro_06s.jpg	5	-1	1	0	gyro_06s.jpg	0	0.0	0	94.18860421184219	94.2385850971914	0.0499808853492141	100270
100.37	50	607	0	0	light_switch	926	298	1	stimuli\light_switch\light_switch_09s.jpg	8	-1	1	0	light_switch_09s.jpg	0	0.0	0	94.2886037729913	94.3385868525947	0.0499830796034075	100370
100.47	50	608	0	0	raincoat	1279	299	1	stimuli\raincoat\raincoat_01s.jpg	0	-1	1	0	raincoat_01s.jpg	0	0.0	0	94.38861089223059	94.43858860805629	0.049977715825661996	100470
100.57	50	609	0	0	swab	1590	300	1	stimuli\swab\swab_02s.jpg	1	-1	1	0	swab_02s.jpg	0	0.0	0	94.48861557332572	94.5385959710693	0.0499803977436386	100570
100.67	50	610	0	0	tricycle	1711	301	1	stimuli\tricycle\tricycle_09s.jpg	8	-1	1	0	tricycle_09s.jpg	0	0.0	0	94.5886131839943	94.63859723886709	0.0499840548727661	100670
100.77	50	611	0	0	balloon	60	302	1	stimuli\balloon\balloon_11s.jpg	10	-1	1	0	balloon_11s.jpg	0	0.0	0	94.6886171337101	94.7385980190593	0.0499808853492141	100770
100.87	50	612	0	0	goblet	685	303	1	stimuli\goblet\goblet_07s.jpg	6	-1	1	0	goblet_07s.jpg	0	0.0	0	94.78861913294529	94.8386022126069	0.0499830796616152	100870
100.97	50	613	0	0	glasses	678	304	1	stimuli\glasses\glasses_03s.jpg	2	-1	1	0	glasses_03s.jpg	0	0.0	0	94.8886243017041	94.93860981945178	0.0499855177477002	100970
101.07	50	614	0	0	washboard	1782	305	1	stimuli\washboard\washboard_07s.jpg	6	-1	1	0	washboard_07s.jpg	0	0.0	0	94.9886238628533	95.03860694251492	0.0499830796616152	101070
101.17	50	615	0	0	highchair	777	306	1	stimuli\highchair\highchair_06s.jpg	5	-1	1	0	highchair_06s.jpg	0	0.0	0	95.0886283001746	95.13860625983222	0.0499779596575536	101170
101.27	50	616	0	0	memory_stick	995	307	1	stimuli\memory_stick\memory_stick_11s.jpg	10	-1	1	0	memory_stick_11s.jpg	0	0.0	0	95.18862981180429	95.238608746673	0.0499789348687045	101270
101.37	50	617	0	0	bolt	159	308	1	stimuli\bolt\bolt_05s.jpg	4	-1	1	0	bolt_05s.jpg	0	0.0	0	95.28862961672708	95.3386151344748	0.0499855177477002	101370
