onset	duration	eventnumber	blocksequencenumber	isteststim	object	objectnumber	presentationnumber	sequencenumber	stim	stimnumber	teststimnumber	withinsequencenumber	istarget	stimname	response	rt	correct	time_stimon	time_stimoff	stimdur	sample
64.325	50	0	0	0	dial	483	0	0	stimuli\dial\dial_09s.jpg	8	-1	0	0	dial_09s.jpg	0	0.0	0	52.4450853917515	52.4950587190106	0.0499733272590674	64325
64.425	50	1	0	0	fly	621	1	0	stimuli\fly\fly_05s.jpg	4	-1	0	0	fly_05s.jpg	0	0.0	0	52.54508397763129	52.595059255370906	0.049975277739577	64425
64.525	50	2	0	0	buffet	211	2	0	stimuli\buffet\buffet_09s.jpg	8	-1	0	0	buffet_09s.jpg	0	0.0	0	52.6450845140498	52.6950622298755	0.049977715825661996	64525
64.625	50	3	0	0	snake	1477	3	0	stimuli\snake\snake_11s.jpg	10	-1	0	0	snake_11s.jpg	0	0.0	0	52.745084806578205	52.795045455801294	0.0499606492230669	64625
64.725	50	4	0	0	hummingbird	811	4	0	stimuli\hummingbird\hummingbird_03s.jpg	2	-1	0	0	hummingbird_03s.jpg	0	0.0	0	52.8450648629805	52.895049893122604	0.0499850301421247	64725
64.825	50	5	0	0	mask	980	5	0	stimuli\mask\mask_10s.jpg	9	-1	0	0	mask_10s.jpg	0	0.0	0	52.9450929498416	52.9956938419491	0.0506008921074681	64825
64.925	50	6	0	0	chess_piece	317	6	0	stimuli\chess_piece\chess_piece_01b.jpg	0	-1	0	0	chess_piece_01b.jpg	0	0.0	0	53.045072762412005	53.0950516972807	0.0499789348687045	64925
65.025	50	7	0	0	boy	184	7	0	stimuli\boy\boy_04s.jpg	3	-1	0	0	boy_04s.jpg	0	0.0	0	53.1450735426042	53.195053696516	0.049980153911747004	65025
65.125	50	8	0	0	blanket	136	8	0	stimuli\blanket\blanket_12s.jpg	11	-1	0	0	blanket_12s.jpg	0	0.0	0	53.245075054233894	53.295081051939604	0.05000599770573901	65125
65.225	50	9	0	0	arugula	40	9	0	stimuli\arugula\arugula_06s.jpg	5	-1	0	0	arugula_06s.jpg	0	0.0	0	53.3450992400758	53.39506110834189	0.0499618682661094	65225
65.325	50	10	0	0	icepick	822	10	0	stimuli\icepick\icepick_01b.jpg	0	-1	0	0	icepick_01b.jpg	0	0.0	0	53.4450851479196	53.495082612324	0.0499974644044414	65325
65.425	50	11	0	0	patch	1125	11	0	stimuli\patch\patch_11s.jpg	10	-1	0	0	patch_11s.jpg	0	0.0	0	53.54508665954929	53.595084611559294	0.0499979520100169	65425
65.525	50	12	0	0	fire_hydrant	592	12	0	stimuli\fire_hydrant\fire_hydrant_07s.jpg	6	-1	0	0	fire_hydrant_07s.jpg	0	0.0	0	53.6451064568828	53.695090999361106	0.0499845424783416	65525
65.625	50	13	0	0	telephone_pole	1639	13	0	stimuli\telephone_pole\telephone_pole_08s.jpg	7	-1	0	0	telephone_pole_08s.jpg	0	0.0	0	53.745108456118004	53.7950893414672	0.0499808853492141	65625
65.725	50	14	0	0	strap	1567	14	0	stimuli\strap\strap_04s.jpg	3	-1	0	0	strap_04s.jpg	0	0.0	0	53.845108992478295	53.8950735426042	0.0499645501258783	65725
65.825	50	15	0	0	bench	120	15	0	stimuli\bench\bench_02s.jpg	1	-1	0	0	bench_02s.jpg	0	0.0	0	53.9451156240539	53.9950948027545	0.0499791787005961	65825
65.925	50	16	0	0	crystal2	454	16	0	stimuli\crystal2\crystal2_07s.jpg	6	-1	0	0	crystal2_07s.jpg	0	0.0	0	54.045120549039	54.0950950953411	0.049974546302110005	65925
66.025	50	17	0	0	notepad	1065	17	0	stimuli\notepad\notepad_01b.jpg	0	-1	0	0	notepad_01b.jpg	0	0.0	0	54.1451042625704	54.1951014831429	0.0499972205725498	66025
66.125	50	18	0	0	pajamas	1099	18	0	stimuli\pajamas\pajamas_09s.jpg	8	-1	0	0	pajamas_09s.jpg	0	0.0	0	54.2451260103262	54.295101044292096	0.0499750339658931	66125
66.225	50	19	0	0	hairpin	737	19	0	stimuli\hairpin\hairpin_02s.jpg	1	-1	0	0	hairpin_02s.jpg	0	0.0	0	54.345111430564394	54.3951042625704	0.0499928320059553	66225
66.325	50	20	0	0	eyedropper	566	20	0	stimuli\eyedropper\eyedropper_06s.jpg	5	-1	0	0	eyedropper_06s.jpg	0	0.0	0	54.4451300087967	54.49511016276671	0.0499801539699547	66325
66.425	50	21	0	0	swimming_pool	1596	21	0	stimuli\swimming_pool\swimming_pool_04s.jpg	3	-1	0	0	swimming_pool_04s.jpg	0	0.0	0	54.5451154290349	54.5951082610409	0.0499928320059553	66425
66.525	50	22	0	0	cleat	353	22	0	stimuli\cleat\cleat_11s.jpg	10	-1	0	0	cleat_11s.jpg	0	0.0	0	54.64511547778971	54.695114648842704	0.0499991710530594	66525
66.625	50	23	0	0	towel_rack	1693	23	0	stimuli\towel_rack\towel_rack_06s.jpg	5	-1	0	0	towel_rack_06s.jpg	0	0.0	0	54.74513576272879	54.7950888538035	0.0499530910747126	66625
66.725	50	24	0	0	bulletin_board	217	24	0	stimuli\bulletin_board\bulletin_board_12s.jpg	11	-1	0	0	bulletin_board_12s.jpg	0	0.0	0	54.845113137213	54.895091828308104	0.0499786910950206	66725
66.825	50	25	0	0	dynamite	536	25	0	stimuli\dynamite\dynamite_01b.jpg	0	-1	0	0	dynamite_01b.jpg	0	0.0	0	54.9451236698078	54.9951208903803	0.0499972205725498	66825
66.925	50	26	0	0	creme_brulee	439	26	0	stimuli\creme_brulee\creme_brulee_08s.jpg	7	-1	0	0	creme_brulee_08s.jpg	0	0.0	0	55.0451395661221	55.095119232428296	0.0499796663061716	66925
67.025	50	27	0	0	badge	52	27	0	stimuli\badge\badge_11s.jpg	10	-1	0	0	badge_11s.jpg	0	0.0	0	55.145124986360294	55.195128058374394	0.0500030720140785	67025
67.125	50	28	0	0	trailer	1697	28	0	stimuli\trailer\trailer_12s.jpg	11	-1	0	0	trailer_12s.jpg	0	0.0	0	55.2451462465106	55.29512347473061	0.0499772282200865	67125
67.225	50	29	0	0	rim	1312	29	0	stimuli\rim\rim_04s.jpg	3	-1	0	0	rim_04s.jpg	0	0.0	0	55.345146295265295	55.3951296187006	0.0499833234352991	67225
67.325	50	30	0	0	throne	1652	30	0	stimuli\throne\throne_02s.jpg	1	-1	0	1	throne_02s.jpg	0	0.0	0	55.4451382983243	55.495114063727705	0.0499757654033601	67325
67.425	50	31	0	0	dumpster	533	31	0	stimuli\dumpster\dumpster_04s.jpg	3	-1	0	0	dumpster_04s.jpg	0	0.0	0	55.545133958512494	55.59511264960749	0.0499786910950206	67425
67.525	50	32	0	0	wreck	1840	32	0	stimuli\wreck\wreck_12s.jpg	11	-1	0	0	wreck_12s.jpg	0	0.0	0	55.645134494931	55.69511416123711	0.0499796663061716	67525
67.625	50	33	0	0	enchilada	556	33	0	stimuli\enchilada\enchilada_01b.jpg	0	-1	0	0	enchilada_01b.jpg	0	0.0	0	55.7451384446467	55.7951149414293	0.0499764967826195	67625
67.725	50	34	0	0	confetti	396	34	0	stimuli\confetti\confetti_10s.jpg	9	-1	0	0	confetti_10s.jpg	1	0.39217416365863794	1	55.845139224838896	55.89512157300489	0.0499823481659405	67725
67.825	50	35	0	0	chive	337	35	0	stimuli\chive\chive_06s.jpg	5	-1	0	0	chive_06s.jpg	0	0.0	0	55.9451551211532	55.9951477093855	0.0499925882322714	67825
67.925	50	36	0	0	fork	634	36	0	stimuli\fork\fork_11s.jpg	10	-1	0	0	fork_11s.jpg	0	0.0	0	56.0451654099161	56.095145076222295	0.0499796663061716	67925
68.025	50	37	0	0	fire_pit	593	37	0	stimuli\fire_pit\fire_pit_07s.jpg	6	-1	0	0	fire_pit_07s.jpg	0	0.0	0	56.145173504366504	56.195147806895	0.0499743025284261	68025
68.125	50	38	0	0	raspberry	1284	38	0	stimuli\raspberry\raspberry_03n.jpg	2	-1	0	0	raspberry_03n.jpg	0	0.0	0	56.2451752598281	56.2951412728289	0.0499660130008124	68125
68.225	50	39	0	0	wallet	1776	39	0	stimuli\wallet\wallet_12s.jpg	11	-1	0	0	wallet_12s.jpg	0	0.0	0	56.34517530858279	56.3951539996197	0.049978691036812996	68225
68.325	50	40	0	0	souffle	1498	40	0	stimuli\souffle\souffle_05s.jpg	4	-1	0	0	souffle_05s.jpg	0	0.0	0	56.4451634106808	56.495155511249294	0.0499921005684882	68325
68.425	50	41	0	0	vacuum	1750	41	0	stimuli\vacuum\vacuum_02s.jpg	1	-1	0	0	vacuum_02s.jpg	0	0.0	0	56.5451819889713	56.59514434478479	0.0499623558134772	68425
68.525	50	42	0	0	turtleneck	1737	42	0	stimuli\turtleneck\turtleneck_03s.jpg	2	-1	0	0	turtleneck_03s.jpg	0	0.0	0	56.6451825253316	56.6951609725947	0.0499784472631291	68525
68.625	50	43	0	0	weed	1802	43	0	stimuli\weed\weed_11s.jpg	10	-1	0	0	weed_11s.jpg	0	0.0	0	56.7451884255279	56.795156388951	0.0499679634231143	68625
68.725	50	44	0	0	headband	762	44	0	stimuli\headband\headband_10s.jpg	9	-1	0	0	headband_10s.jpg	0	0.0	0	56.8451826228411	56.8951596072875	0.0499769844464026	68725
68.825	50	45	0	0	bowl	177	45	0	stimuli\bowl\bowl_05s.jpg	4	-1	0	0	bowl_05s.jpg	0	0.0	0	56.945183159201406	56.9951574617298	0.0499743025284261	68825
68.925	50	46	0	0	turban	1730	46	0	stimuli\turban\turban_12s.jpg	11	-1	0	0	turban_12s.jpg	0	0.0	0	57.04516784800221	57.0951499523944	0.0499821043922566	68925
69.025	50	47	0	0	printer	1240	47	0	stimuli\printer\printer_12s.jpg	11	-1	0	0	printer_12s.jpg	0	0.0	0	57.145172529155396	57.19515146402411	0.0499789348687045	69025
69.125	50	48	0	0	gondola	691	48	0	stimuli\gondola\gondola_10s.jpg	9	-1	0	0	gondola_10s.jpg	0	0.0	0	57.24517428455871	57.2951520003844	0.049977715825661996	69125
69.225	50	49	0	0	scanner	1375	49	0	stimuli\scanner\scanner_05s.jpg	4	-1	0	0	scanner_05s.jpg	0	0.0	0	57.3451816476299	57.39517959964001	0.0499979520100169	69225
69.325	50	50	0	0	hook2	794	50	0	stimuli\hook2\hook2_10s.jpg	9	-1	0	0	hook2_10s.jpg	0	0.0	0	57.445202176342704	57.495179648394696	0.0499774720519781	69325
69.425	50	51	0	0	mug	1036	51	0	stimuli\mug\mug_04s.jpg	3	-1	0	0	mug_04s.jpg	0	0.0	0	57.5452056384529	57.595184085716	0.0499784472631291	69425
69.525	50	52	0	0	doorknob	509	52	0	stimuli\doorknob\doorknob_02s.jpg	1	-1	0	0	doorknob_02s.jpg	0	0.0	0	57.6451883767149	57.6951858411194	0.0499974644044414	69525
69.625	50	53	0	0	cloud	364	53	0	stimuli\cloud\cloud_05s.jpg	4	-1	0	0	cloud_05s.jpg	0	0.0	0	57.74519939691529	57.7951824765769	0.0499830796616152	69625
69.725	50	54	0	0	door	506	54	0	stimuli\door\door_02s.jpg	1	-1	0	0	door_02s.jpg	0	0.0	0	57.845200664713	57.895180331019205	0.0499796663061716	69725
69.825	50	55	0	0	mantle	969	55	0	stimuli\mantle\mantle_03s.jpg	2	-1	0	0	mantle_03s.jpg	0	0.0	0	57.945204614428796	57.9951779416879	0.0499733272590674	69825
69.925	50	56	0	0	faucet	573	56	0	stimuli\faucet\faucet_05s.jpg	4	-1	0	0	faucet_05s.jpg	0	0.0	0	58.0451914974838	58.095173845707905	0.0499823482241482	69925
70.025	50	57	0	0	boxer_shorts	182	57	0	stimuli\boxer_shorts\boxer_shorts_07s.jpg	6	-1	0	0	boxer_shorts_07s.jpg	0	0.0	0	58.1451978852856	58.195182427822104	0.0499845425365493	70025
70.125	50	58	0	0	tongue	1675	58	0	stimuli\tongue\tongue_05s.jpg	4	-1	0	0	tongue_05s.jpg	0	0.0	0	58.2452011035639	58.2951810137019	0.0499799101380631	70125
70.225	50	59	0	0	wagon	1772	59	0	stimuli\wagon\wagon_10s.jpg	9	-1	0	0	wagon_10s.jpg	0	0.0	0	58.3452013961505	58.3951832567691	0.0499818606185727	70225
70.325	50	60	0	0	parrot	1121	60	0	stimuli\parrot\parrot_11s.jpg	10	-1	0	0	parrot_11s.jpg	0	0.0	0	58.445204614428796	58.4951847683406	0.049980153911747004	70325
70.425	50	61	0	0	trumpet	1721	61	0	stimuli\trumpet\trumpet_11s.jpg	10	-1	0	0	trumpet_11s.jpg	0	0.0	0	58.545206369890394	58.5951850609272	0.049978691036812996	70425
70.525	50	62	0	0	flip_flop	614	62	0	stimuli\flip_flop\flip_flop_12s.jpg	11	-1	0	0	flip_flop_12s.jpg	0	0.0	0	58.645208612899296	58.69521095347589	0.0500023405766115	70525
70.625	50	63	0	0	aloe	14	63	0	stimuli\aloe\aloe_09s.jpg	8	-1	0	0	aloe_09s.jpg	0	0.0	0	58.7452364559285	58.7951919851475	0.0499555292190053	70625
70.725	50	64	0	0	firewood	597	64	0	stimuli\firewood\firewood_03s.jpg	2	-1	0	0	firewood_03s.jpg	0	0.0	0	58.8452145618503	58.8951925215079	0.0499779596575536	70725
70.825	50	65	0	0	piggy_bank	1172	65	0	stimuli\piggy_bank\piggy_bank_12s.jpg	11	-1	0	0	piggy_bank_12s.jpg	0	0.0	0	58.945220705820205	58.9952018350014	0.0499811291811056	70825
70.925	50	66	0	0	sifter	1443	66	0	stimuli\sifter\sifter_08s.jpg	7	-1	0	0	sifter_08s.jpg	0	0.0	0	59.04522172984429	59.095195300935295	0.049973571090959006	70925
71.025	50	67	0	0	fox	638	67	0	stimuli\fox\fox_07s.jpg	6	-1	0	0	fox_07s.jpg	0	0.0	0	59.1452100757742	59.195192667772105	0.0499825919978321	71025
71.125	50	68	0	0	turtle	1736	68	0	stimuli\turtle\turtle_10n.jpg	9	-1	0	0	turtle_10n.jpg	0	0.0	0	59.24521231878321	59.295191741315605	0.0499794225324877	71125
71.225	50	69	0	0	wreath	1839	69	0	stimuli\wreath\wreath_03s.jpg	2	-1	0	0	wreath_03s.jpg	0	0.0	0	59.345214805682204	59.395203492895206	0.0499886872130446	71225
71.325	50	70	0	0	music_box	1041	70	0	stimuli\music_box\music_box_08s.jpg	7	-1	0	0	music_box_08s.jpg	0	0.0	0	59.445217292523004	59.4951996407472	0.0499823482241482	71325
71.425	50	71	0	0	cooker	399	71	0	stimuli\cooker\cooker_06s.jpg	5	-1	0	0	cooker_06s.jpg	0	0.0	0	59.5452227050555	59.5951999332756	0.0499772282200865	71425
71.525	50	72	0	0	jet	847	72	0	stimuli\jet\jet_02s.jpg	1	-1	0	0	jet_02s.jpg	0	0.0	0	59.645229824294795	59.6952036392177	0.0499738149228506	71525
71.625	50	73	0	0	ketchup	867	73	0	stimuli\ketchup\ketchup_07s.jpg	6	-1	0	0	ketchup_07s.jpg	0	0.0	0	59.7452281664009	59.7952100270195	0.0499818606185727	71625
71.725	50	74	0	0	porcupine	1226	74	0	stimuli\porcupine\porcupine_12s.jpg	11	-1	0	0	porcupine_12s.jpg	0	0.0	0	59.8452545465552	59.895236894779394	0.0499823482241482	71725
71.825	50	75	0	0	fire	590	75	0	stimuli\fire\fire_03s.jpg	2	-1	0	0	fire_03s.jpg	0	0.0	0	59.945261909626396	59.9952401130577	0.0499782034312375	71825
71.925	50	76	0	0	knob	882	76	0	stimuli\knob\knob_04s.jpg	3	-1	0	0	knob_04s.jpg	0	0.0	0	60.045244647888495	60.0952421122929	0.0499974644044414	71925
72.025	50	77	0	0	life_jacket	924	77	0	stimuli\life_jacket\life_jacket_12s.jpg	11	-1	0	0	life_jacket_12s.jpg	0	0.0	0	60.1452622509096	60.1952448429656	0.0499825920560397	72025
72.125	50	78	0	0	chin	330	78	0	stimuli\chin\chin_09s.jpg	8	-1	0	0	chin_09s.jpg	0	0.0	0	60.2452654691879	60.2952297755401	0.0499643063521944	72125
72.225	50	79	0	0	defibrillator	477	79	0	stimuli\defibrillator\defibrillator_08s.jpg	7	-1	0	0	defibrillator_08s.jpg	0	0.0	0	60.3452679560869	60.3952634699526	0.0499955138657242	72225
72.325	50	80	0	0	foam	624	80	0	stimuli\foam\foam_02s.jpg	1	-1	0	0	foam_02s.jpg	0	0.0	0	60.445245330571204	60.4952286540065	0.0499833234352991	72325
72.425	50	81	0	0	dumbwaiter	531	81	0	stimuli\dumbwaiter\dumbwaiter_02s.jpg	1	-1	0	0	dumbwaiter_02s.jpg	0	0.0	0	60.5452475736383	60.5952269961126	0.04997942247428	72425
72.525	50	82	0	0	toad	1664	82	0	stimuli\toad\toad_08s.jpg	7	-1	0	0	toad_08s.jpg	0	0.0	0	60.645250548084704	60.69523192103949	0.0499813729547895	72525
72.626	50	83	0	0	teacup	1633	83	0	stimuli\teacup\teacup_02s.jpg	1	-1	0	0	teacup_02s.jpg	0	0.0	0	60.74528058536821	60.795259276463206	0.0499786910950206	72626
72.726	50	84	0	0	bat2	88	84	0	stimuli\bat2\bat2_12s.jpg	11	-1	0	0	bat2_12s.jpg	0	0.0	0	60.8452801465173	60.8952468909556	0.0499667444382794	72726
72.826	50	85	0	0	bookmark	166	85	0	stimuli\bookmark\bookmark_10s.jpg	9	-1	0	0	bookmark_10s.jpg	0	0.0	0	60.9452845838387	60.9952705891919	0.0499860053532757	72826
72.926	50	86	0	0	baton3	94	86	0	stimuli\baton3\baton3_09s.jpg	8	-1	0	0	baton3_09s.jpg	0	0.0	0	61.04527146689361	61.0952674684231	0.0499960015295073	72926
73.026	50	87	0	0	loveseat	947	87	0	stimuli\loveseat\loveseat_03s.jpg	2	-1	0	0	loveseat_03s.jpg	0	0.0	0	61.1453036984894	61.19524508673929	0.0499413882498629	73026
73.126	50	88	0	0	ram	1282	88	0	stimuli\ram\ram_02s.jpg	1	-1	0	0	ram_02s.jpg	0	0.0	0	61.2452637625393	61.2952419660287	0.0499782034894451	73126
73.226	50	89	0	0	feather	574	89	0	stimuli\feather\feather_10s.jpg	9	-1	0	0	feather_10s.jpg	0	0.0	0	61.3452652741689	61.39524640335	0.0499811291811056	73226
73.326	50	90	0	0	noose	1062	90	0	stimuli\noose\noose_07s.jpg	6	-1	0	0	noose_07s.jpg	0	0.0	0	61.4452694676584	61.4952481587534	0.0499786910950206	73326
73.426	50	91	0	0	paddle	1094	91	0	stimuli\paddle\paddle_10s.jpg	9	-1	0	0	paddle_10s.jpg	0	0.0	0	61.54527146689361	61.5952499141567	0.0499784472631291	73426
73.526	50	92	0	0	rollerskate	1327	92	0	stimuli\rollerskate\rollerskate_04s.jpg	3	-1	0	0	rollerskate_04s.jpg	0	0.0	0	61.6452720033121	61.6952528886613	0.0499808853492141	73526
73.626	50	93	0	0	mandolin	965	93	0	stimuli\mandolin\mandolin_10s.jpg	9	-1	0	0	mandolin_10s.jpg	0	0.0	0	61.7452752215904	61.795256106939604	0.0499808853492141	73626
73.726	50	94	0	0	shower_curtain	1435	94	0	stimuli\shower_curtain\shower_curtain_03s.jpg	2	-1	0	0	shower_curtain_03s.jpg	0	0.0	0	61.8452760017826	61.895291508058996	0.0500155062763952	73726
73.826	50	95	0	0	grape	702	95	0	stimuli\grape\grape_02s.jpg	1	-1	0	0	grape_02s.jpg	0	0.0	0	61.9453089647577	61.99529106915	0.0499821043922566	73826
73.926	50	96	0	0	cereal	297	96	0	stimuli\cereal\cereal_11s.jpg	10	-1	0	0	cereal_11s.jpg	0	0.0	0	62.0453197411261	62.095275514177	0.0499557730508968	73926
74.026	50	97	0	0	scissors	1379	97	0	stimuli\scissors\scissors_05s.jpg	4	-1	0	0	scissors_05s.jpg	0	0.0	0	62.1452954089618	62.195265322923696	0.0499699139618315	74026
74.126	50	98	0	0	cookie	400	98	0	stimuli\cookie\cookie_04s.jpg	3	-1	0	0	cookie_04s.jpg	0	0.0	0	62.2452893625014	62.29529852973061	0.0500091672292911	74126
74.226	50	99	0	0	yak	1845	99	0	stimuli\yak\yak_04s.jpg	3	-1	0	0	yak_04s.jpg	0	0.0	0	62.345318424573605	62.395300041360294	0.0499816167866811	74226
74.326	50	100	0	0	jellyfish	845	100	0	stimuli\jellyfish\jellyfish_01b.jpg	0	-1	0	0	jellyfish_01b.jpg	0	0.0	0	62.445320179976996	62.495303015806705	0.0499828358297236	74326
74.426	50	101	0	0	cornmeal	415	101	0	stimuli\cornmeal\cornmeal_01b.jpg	0	-1	0	0	cornmeal_01b.jpg	0	0.0	0	62.5453292496968	62.5953052588739	0.049976009177044006	74426
74.526	50	102	0	0	refrigerator	1300	102	0	stimuli\refrigerator\refrigerator_05s.jpg	4	-1	0	0	refrigerator_05s.jpg	0	0.0	0	62.645329054677894	62.6953153038048	0.0499862491269596	74526
74.626	50	103	0	0	record	1295	103	0	stimuli\record\record_03s.jpg	2	-1	0	0	record_03s.jpg	0	0.0	0	62.7453130119829	62.79529706685571	0.0499840548727661	74626
74.726	50	104	0	0	lava	903	104	0	stimuli\lava\lava_07s.jpg	6	-1	0	0	lava_07s.jpg	0	0.0	0	62.8453311026678	62.895306624181096	0.0499755215132609	74726
74.826	50	105	0	0	eye_patch	565	105	0	stimuli\eye_patch\eye_patch_09s.jpg	8	-1	0	0	eye_patch_09s.jpg	0	0.0	0	62.945337490469704	62.9953176443814	0.049980153911747004	74826
74.926	50	106	0	0	cocoon	376	106	0	stimuli\cocoon\cocoon_11s.jpg	10	-1	0	0	cocoon_11s.jpg	0	0.0	0	63.0453248611302	63.09531915601111	0.0499942948808894	74926
75.026	50	107	0	0	gurney	728	107	0	stimuli\gurney\gurney_01b.jpg	0	-1	0	0	gurney_01b.jpg	0	0.0	0	63.14534270798321	63.195319204765795	0.0499764967826195	75026
75.126	50	108	0	0	lamppost	892	108	0	stimuli\lamppost\lamppost_08s.jpg	7	-1	0	0	lamppost_08s.jpg	0	0.0	0	63.2453252024716	63.2953204725636	0.0499952700920403	75126
75.226	50	109	0	0	squirrel	1529	109	0	stimuli\squirrel\squirrel_10s.jpg	9	-1	0	0	squirrel_10s.jpg	0	0.0	0	63.3453257388319	63.395326128928005	0.0500003900961019	75226
75.326	50	110	0	0	pocket	1205	110	0	stimuli\pocket\pocket_08s.jpg	7	-1	0	0	pocket_08s.jpg	0	0.0	0	63.4453450485598	63.495331297686796	0.0499862491269596	75326
75.426	50	111	0	0	garbage_truck	656	111	0	stimuli\garbage_truck\garbage_truck_03s.jpg	2	-1	0	0	garbage_truck_03s.jpg	0	0.0	0	63.5453324192204	63.5953189121792	0.0499864929588512	75426
75.526	50	112	0	0	reel	1299	112	0	stimuli\reel\reel_02s.jpg	1	-1	0	0	reel_02s.jpg	0	0.0	0	63.6453449022374	63.6953243247699	0.0499794225324877	75526
75.626	50	113	0	0	pencil_sharpener	1143	113	0	stimuli\pencil_sharpener\pencil_sharpener_02s.jpg	1	-1	0	0	pencil_sharpener_02s.jpg	0	0.0	0	63.745343975781005	63.7953248611302	0.0499808853492141	75626
75.726	50	114	0	0	coral	406	114	0	stimuli\coral\coral_04s.jpg	3	-1	0	0	coral_04s.jpg	0	0.0	0	63.845347437891206	63.8953305174946	0.0499830796034075	75726
75.826	50	115	0	0	gate	662	115	0	stimuli\gate\gate_04s.jpg	3	-1	0	0	gate_04s.jpg	0	0.0	0	63.945350168505705	63.995323495823	0.0499733273172751	75826
75.926	50	116	0	0	brussels_sprouts	206	116	0	stimuli\brussels_sprouts\brussels_sprouts_05s.jpg	4	-1	0	0	brussels_sprouts_05s.jpg	0	0.0	0	64.04533510113829	64.09532208170279	0.0499869805644266	75926
76.026	50	117	0	0	trowel	1719	117	0	stimuli\trowel\trowel_10s.jpg	9	-1	0	0	trowel_10s.jpg	0	0.0	0	64.1453378317528	64.1953250562074	0.0499872244545259	76026
76.126	50	118	0	0	binder	126	118	0	stimuli\binder\binder_06s.jpg	5	-1	0	0	binder_06s.jpg	0	0.0	0	64.245341293863	64.2953214477748	0.049980153911747004	76126
76.226	50	119	0	0	skeleton	1450	119	0	stimuli\skeleton\skeleton_09s.jpg	8	-1	0	0	skeleton_09s.jpg	0	0.0	0	64.3453328093165	64.395350509847	0.0500177005305886	76226
76.326	50	120	0	0	cymbal	468	120	0	stimuli\cymbal\cymbal_09s.jpg	8	-1	0	0	cymbal_09s.jpg	0	0.0	0	64.4453740618192	64.4953542157309	0.049980153911747004	76326
76.426	50	121	0	0	eyepiece	568	121	0	stimuli\eyepiece\eyepiece_06s.jpg	5	-1	0	0	eyepiece_06s.jpg	0	0.0	0	64.54537508584329	64.5953371978831	0.0499621120397933	76426
76.526	50	122	0	0	washing_machine	1784	122	0	stimuli\washing_machine\washing_machine_07s.jpg	6	-1	0	0	washing_machine_07s.jpg	0	0.0	0	64.6453561174567	64.6953321266337	0.049976009177044006	76526
76.626	50	123	0	0	pizza	1192	123	0	stimuli\pizza\pizza_12s.jpg	11	-1	0	0	pizza_12s.jpg	0	0.0	0	64.74535567860579	64.7953299811343	0.0499743025284261	76626
76.726	50	124	0	0	quad	1260	124	0	stimuli\quad\quad_04s.jpg	3	-1	0	0	quad_04s.jpg	0	0.0	0	64.84535304550079	64.8953322241432	0.0499791786423884	76726
76.826	50	125	0	0	dice	486	125	0	stimuli\dice\dice_08s.jpg	7	-1	0	0	dice_08s.jpg	0	0.0	0	64.94536040851379	64.9953415376949	0.0499811291811056	76826
76.926	50	126	0	0	can	250	126	0	stimuli\can\can_06s.jpg	5	-1	0	0	can_06s.jpg	0	0.0	0	65.0453602134949	65.09534426836761	0.0499840548727661	76926
77.026	50	127	0	0	glasses	678	127	0	stimuli\glasses\glasses_01b.jpg	0	-1	0	0	glasses_01b.jpg	0	0.0	0	65.1453634317731	65.1953745494247	0.0500111176515929	77026
77.126	50	128	0	0	clothespin	363	128	0	stimuli\clothespin\clothespin_05s.jpg	4	-1	0	0	clothespin_05s.jpg	0	0.0	0	65.2453622614848	65.2953443658771	0.0499821043922566	77126
77.226	50	129	0	0	fireplace	595	129	0	stimuli\fireplace\fireplace_02s.jpg	1	-1	0	0	fireplace_02s.jpg	0	0.0	0	65.34536499209929	65.3953451460693	0.0499801539699547	77226
77.326	50	130	0	0	lock	940	130	0	stimuli\lock\lock_11s.jpg	10	-1	0	0	lock_11s.jpg	0	0.0	0	65.4453728427761	65.4953500709962	0.0499772282200865	77326
77.426	50	131	0	0	wineglass	1826	131	0	stimuli\wineglass\wineglass_06s.jpg	5	-1	0	1	wineglass_06s.jpg	0	0.0	0	65.5453880077112	65.5953518264578	0.0499638187466189	77426
77.526	50	132	0	0	bat1	87	132	0	stimuli\bat1\bat1_12s.jpg	11	-1	0	0	bat1_12s.jpg	0	0.0	0	65.645379035559	65.69535553234161	0.0499764967826195	77526
77.626	50	133	0	0	gyroscope	731	133	0	stimuli\gyroscope\gyroscope_10s.jpg	9	-1	0	0	gyroscope_10s.jpg	0	0.0	0	65.7453778652707	65.795357287745	0.04997942247428	77626
77.726	50	134	0	0	shopping_cart	1428	134	0	stimuli\shopping_cart\shopping_cart_07s.jpg	6	-1	0	0	shopping_cart_07s.jpg	1	0.341894368233625	1	65.845377182588	65.8953622127301	0.0499850301421247	77726
77.826	50	135	0	0	boot	169	135	0	stimuli\boot\boot_05s.jpg	4	-1	0	0	boot_05s.jpg	0	0.0	0	65.9454123398755	65.9953654310084	0.0499530911329202	77826
77.926	50	136	0	0	filing_cabinet	585	136	0	stimuli\filing_cabinet\filing_cabinet_11s.jpg	10	-1	0	0	filing_cabinet_11s.jpg	0	0.0	0	66.0453821562696	66.0953615788021	0.0499794225324877	77926
78.026	50	137	0	0	spareribs	1505	137	0	stimuli\spareribs\spareribs_06s.jpg	5	-1	0	0	spareribs_06s.jpg	0	0.0	0	66.1453914698213	66.1954050256172	0.0500135557958856	78026
78.126	50	138	0	0	scooter	1382	138	0	stimuli\scooter\scooter_01b.jpg	0	-1	0	0	scooter_01b.jpg	0	0.0	0	66.2454163871007	66.29539507819571	0.0499786910950206	78126
78.226	50	139	0	0	gel	669	139	0	stimuli\gel\gel_08s.jpg	7	-1	0	0	gel_08s.jpg	0	0.0	0	66.3454191177734	66.3953853745479	0.0499662567744963	78226
78.326	50	140	0	0	armor	37	140	0	stimuli\armor\armor_12s.jpg	11	-1	0	0	armor_12s.jpg	0	0.0	0	66.4454213608406	66.4954022461898	0.0499808853492141	78326
78.426	50	141	0	0	gasket	661	141	0	stimuli\gasket\gasket_01b.jpg	0	-1	0	0	gasket_01b.jpg	0	0.0	0	66.5454223848064	66.59540619590551	0.0499838110990822	78426
78.526	50	142	0	0	fire_alarm	591	142	0	stimuli\fire_alarm\fire_alarm_04s.jpg	3	-1	0	0	fire_alarm_04s.jpg	0	0.0	0	66.645425359311	66.6953933227342	0.0499679634231143	78526
78.626	50	143	0	0	garlic	658	143	0	stimuli\garlic\garlic_09s.jpg	8	-1	0	0	garlic_09s.jpg	0	0.0	0	66.7454290651949	66.795408975333	0.0499799101380631	78626
78.726	50	144	0	0	cheeseburger	313	144	0	stimuli\cheeseburger\cheeseburger_07s.jpg	6	-1	0	0	cheeseburger_07s.jpg	0	0.0	0	66.8454335025162	66.8954195078695	0.0499860053532757	78726
78.826	50	145	0	0	surfboard	1587	145	0	stimuli\surfboard\surfboard_12s.jpg	11	-1	0	0	surfboard_12s.jpg	0	0.0	0	66.9454357455834	66.9954195566243	0.0499838110408746	78826
78.926	50	146	0	0	roulette_wheel	1335	146	0	stimuli\roulette_wheel\roulette_wheel_05s.jpg	4	-1	0	0	roulette_wheel_05s.jpg	0	0.0	0	67.0454357943381	67.095399125421	0.0499633310828358	78926
79.026	50	147	0	0	jar	840	147	0	stimuli\jar\jar_07s.jpg	6	-1	0	0	jar_07s.jpg	0	0.0	0	67.1454209707445	67.195395029441	0.0499740586965345	79026
79.126	50	148	0	0	racket	1270	148	0	stimuli\racket\racket_12s.jpg	11	-1	0	0	racket_12s.jpg	0	0.0	0	67.2454146804521	67.2953958096332	0.0499811291811056	79126
79.226	50	149	0	0	scuba	1392	149	0	stimuli\scuba\scuba_01b.jpg	0	-1	0	0	scuba_01b.jpg	0	0.0	0	67.3454503253452	67.3954165821779	0.0499662568327039	79226
79.326	50	150	0	0	wax	1795	150	0	stimuli\wax\wax_12s.jpg	11	-1	0	0	wax_12s.jpg	0	0.0	0	67.4454474484082	67.4954105356592	0.0499630872509442	79326
79.426	50	151	0	0	bolt	159	151	0	stimuli\bolt\bolt_05s.jpg	4	-1	0	0	bolt_05s.jpg	0	0.0	0	67.54543262481461	67.5954122911207	0.0499796663061716	79426
79.526	50	152	0	0	fish	600	152	0	stimuli\fish\fish_10s.jpg	9	-1	0	0	fish_10s.jpg	0	0.0	0	67.6454521783162	67.695433551271	0.0499813729547895	79526
79.626	50	153	0	0	rabbit	1265	153	0	stimuli\rabbit\rabbit_10n.jpg	9	-1	0	0	rabbit_10n.jpg	0	0.0	0	67.745453446114	67.7954355505062	0.0499821043922566	79626
79.726	50	154	0	0	compass	392	154	0	stimuli\compass\compass_09n.jpg	8	-1	0	0	compass_09n.jpg	0	0.0	0	67.8454564205604	67.89541463169729	0.0499582111369818	79726
79.826	50	155	0	0	leech	909	155	0	stimuli\leech\leech_12s.jpg	11	-1	0	0	leech_12s.jpg	0	0.0	0	67.9454808502342	67.995426139445	0.049945289210882	79826
79.926	50	156	0	0	fireworks	598	156	0	stimuli\fireworks\fireworks_04s.jpg	3	-1	0	0	fireworks_04s.jpg	0	0.0	0	68.0454467657255	68.0954230187344	0.0499762530089356	79926
80.026	50	157	0	0	cash_machine	279	157	0	stimuli\cash_machine\cash_machine_08s.jpg	7	-1	0	0	cash_machine_08s.jpg	0	0.0	0	68.1454480335233	68.1954257493489	0.049977715825661996	80026
80.126	50	158	0	0	doorstop	512	158	0	stimuli\doorstop\doorstop_02s.jpg	1	-1	0	0	doorstop_02s.jpg	0	0.0	0	68.24544564419189	68.295428236248	0.0499825920560397	80126
80.226	50	159	0	0	hippopotamus	781	159	0	stimuli\hippopotamus\hippopotamus_10s.jpg	9	-1	0	0	hippopotamus_10s.jpg	0	0.0	0	68.3454564205604	68.3954346240498	0.0499782034894451	80226
80.326	50	160	0	0	walrus	1779	160	0	stimuli\walrus\walrus_12s.jpg	11	-1	0	0	walrus_12s.jpg	0	0.0	0	68.445456713147	68.4954373547225	0.0499806415755302	80326
80.426	50	161	0	0	chickpea	325	161	0	stimuli\chickpea\chickpea_02s.jpg	1	-1	0	1	chickpea_02s.jpg	0	0.0	0	68.5454616380739	68.5954430110869	0.0499813730129972	80426
80.526	50	162	0	0	tulip	1726	162	0	stimuli\tulip\tulip_02s.jpg	1	-1	0	0	tulip_02s.jpg	0	0.0	0	68.6454641249729	68.69544549792771	0.0499813729547895	80526
80.626	50	163	0	0	piglet	1173	163	0	stimuli\piglet\piglet_08s.jpg	7	-1	0	0	piglet_08s.jpg	0	0.0	0	68.7454883108148	68.79544603428799	0.0499577234731987	80626
80.726	50	164	0	0	ambulance	19	164	0	stimuli\ambulance\ambulance_12s.jpg	11	-1	0	0	ambulance_12s.jpg	0	0.0	0	68.8454678796115	68.8954475459177	0.0499796663061716	80726
80.826	50	165	0	0	hand	744	165	0	stimuli\hand\hand_10s.jpg	9	-1	0	0	hand_10s.jpg	1	0.40019304811721707	1	68.9454742674134	68.9954556403682	0.0499813729547895	80826
80.926	50	166	0	0	bathtub	91	166	0	stimuli\bathtub\bathtub_12s.jpg	11	-1	0	0	bathtub_12s.jpg	0	0.0	0	69.0455001599621	69.0954771443503	0.049976984388195	80926
81.026	50	167	0	0	limousine	931	167	0	stimuli\limousine\limousine_01s.jpg	0	-1	0	0	limousine_01s.jpg	0	0.0	0	69.1454782658839	69.1954576883581	0.04997942247428	81026
81.126	50	168	0	0	cilantro	347	168	0	stimuli\cilantro\cilantro_10s.jpg	9	-1	0	0	cilantro_10s.jpg	0	0.0	0	69.24548343464271	69.2954782171291	0.0499947824864648	81126
81.226	50	169	0	0	handkerchief	747	169	0	stimuli\handkerchief\handkerchief_11s.jpg	10	-1	0	0	handkerchief_11s.jpg	0	0.0	0	69.3454842148349	69.3954677821021	0.0499835672671907	81226
81.326	50	170	0	0	syrup	1605	170	0	stimuli\syrup\syrup_11s.jpg	10	-1	0	0	syrup_11s.jpg	0	0.0	0	69.4454874331132	69.4954839222482	0.0499964891350828	81326
81.426	50	171	0	0	thermos	1647	171	0	stimuli\thermos\thermos_12s.jpg	11	-1	0	0	thermos_12s.jpg	0	0.0	0	69.54550576757171	69.5954844586086	0.049978691036812996	81426
81.526	50	172	0	0	hammock	742	172	0	stimuli\hammock\hammock_04s.jpg	3	-1	0	0	hammock_04s.jpg	0	0.0	0	69.6455114239361	69.6954857264645	0.0499743025284261	81526
81.626	50	173	0	0	firecracker	594	173	0	stimuli\firecracker\firecracker_10s.jpg	9	-1	0	0	firecracker_10s.jpg	0	0.0	0	69.7455119602964	69.7954921142664	0.0499801539699547	81626
81.726	50	174	0	0	pig	1170	174	0	stimuli\pig\pig_07s.jpg	6	-1	0	0	pig_07s.jpg	0	0.0	0	69.845514934801	69.8954924067948	0.0499774719937705	81726
81.826	50	175	0	0	breathalyzer	198	175	0	stimuli\breathalyzer\breathalyzer_04s.jpg	3	-1	0	0	breathalyzer_04s.jpg	0	0.0	0	69.94551230163779	69.99549660034239	0.0499842987046577	81826
81.926	50	176	0	0	laser_pointer	899	176	0	stimuli\laser_pointer\laser_pointer_01b.jpg	0	-1	0	0	laser_pointer_01b.jpg	0	0.0	0	70.0455077180522	70.0954981119721	0.0499903939198703	81926
82.026	50	177	0	0	counter	424	177	0	stimuli\counter\counter_12s.jpg	11	-1	0	0	counter_12s.jpg	0	0.0	0	70.1455182505888	70.1954813378979	0.0499630873091519	82026
82.126	50	178	0	0	kettle	868	178	0	stimuli\kettle\kettle_08s.jpg	7	-1	0	0	kettle_08s.jpg	0	0.0	0	70.2455034269951	70.2955030856538	0.0499996586586349	82126
82.226	50	179	0	0	coverall	425	179	0	stimuli\coverall\coverall_01b.jpg	0	-1	0	0	coverall_01b.jpg	0	0.0	0	70.3455266376259	70.3954875306226	0.0499608929967508	82226
82.326	50	180	0	0	cabbage	232	180	0	stimuli\cabbage\cabbage_06s.jpg	5	-1	0	0	cabbage_06s.jpg	0	0.0	0	70.4455259549432	70.49551586125742	0.0499899063142948	82326
82.426	50	181	0	0	berry	121	181	0	stimuli\berry\berry_08s.jpg	7	-1	0	0	berry_08s.jpg	0	0.0	0	70.54552917322141	70.5955100585707	0.0499808853492141	82426
82.526	50	182	0	0	binoculars	127	182	0	stimuli\binoculars\binoculars_10s.jpg	9	-1	0	1	binoculars_10s.jpg	0	0.0	0	70.6455340982066	70.69549669785191	0.0499625996453688	82526
82.626	50	183	0	0	beer	113	183	0	stimuli\beer\beer_04s.jpg	3	-1	0	0	beer_04s.jpg	0	0.0	0	70.7455348783988	70.79551600752171	0.04998112912289799	82626
82.726	50	184	0	0	speaker	1509	184	0	stimuli\speaker\speaker_01s.jpg	0	-1	0	0	speaker_01s.jpg	0	0.0	0	70.8455429728492	70.8955163001083	0.0499733272590674	82726
82.826	50	185	0	0	cigarette_butt	345	185	0	stimuli\cigarette_butt\cigarette_butt_11s.jpg	10	-1	0	0	cigarette_butt_11s.jpg	0	0.0	0	70.945540339686	70.9954785584705	0.0499382187845185	82826
82.926	50	186	0	0	pomegranate	1219	186	0	stimuli\pomegranate\pomegranate_03s.jpg	2	-1	0	0	pomegranate_03s.jpg	1	0.441922211204655	1	71.04552746657279	71.095505913836	0.0499784472631291	82926
83.026	50	187	0	0	scrambled_egg	1386	187	0	stimuli\scrambled_egg\scrambled_egg_07s.jpg	6	-1	0	0	scrambled_egg_07s.jpg	0	0.0	0	71.1455241020303	71.1955091321142	0.0499850300839171	83026
83.126	50	188	0	0	chaps	306	188	0	stimuli\chaps\chaps_04s.jpg	3	-1	0	0	chaps_04s.jpg	0	0.0	0	71.2455521888332	71.2955281980103	0.049976009177044006	83126
83.226	50	189	0	0	projector	1242	189	0	stimuli\projector\projector_12s.jpg	11	-1	0	0	projector_12s.jpg	0	0.0	0	71.34553200140358	71.39550679153758	0.0499747901340015	83226
83.326	50	190	0	0	basketball	83	190	0	stimuli\basketball\basketball_03s.jpg	2	-1	0	0	basketball_03s.jpg	0	0.0	0	71.44553302542771	71.49551269173391	0.0499796663061716	83326
83.426	50	191	0	0	parachute	1118	191	0	stimuli\parachute\parachute_09s.jpg	8	-1	0	0	parachute_09s.jpg	0	0.0	0	71.5455369751435	71.59551420336359	0.0499772282200865	83426
83.526	50	192	0	0	mint	1004	192	0	stimuli\mint\mint_09s.jpg	8	-1	0	0	mint_09s.jpg	0	0.0	0	71.64553190389421	71.6955159587669	0.0499840548727661	83526
83.626	50	193	0	0	place_mat	1193	193	0	stimuli\place_mat\place_mat_11s.jpg	10	-1	0	0	place_mat_11s.jpg	0	0.0	0	71.7455363412155	71.7955172265647	0.0499808853492141	83626
83.726	50	194	0	0	doorknocker	510	194	0	stimuli\doorknocker\doorknocker_05s.jpg	4	-1	0	0	doorknocker_05s.jpg	0	0.0	0	71.84554492332971	71.89552312676099	0.0499782034312375	83726
83.826	50	195	0	0	triangle	1710	195	0	stimuli\triangle\triangle_05s.jpg	4	-1	0	0	triangle_05s.jpg	0	0.0	0	71.94554472825259	71.9955256136018	0.0499808853492141	83826
83.926	50	196	0	0	barbell	72	196	0	stimuli\barbell\barbell_06s.jpg	5	-1	0	0	barbell_06s.jpg	0	0.0	0	72.0455764722428	72.0955473614158	0.0499708891729824	83926
84.026	50	197	0	0	tumbleweed	1727	197	0	stimuli\tumbleweed\tumbleweed_04s.jpg	3	-1	0	0	tumbleweed_04s.jpg	0	0.0	0	72.14556725625879	72.19554765400241	0.0499803977436386	84026
84.126	50	198	0	0	origami	1083	198	0	stimuli\origami\origami_10s.jpg	9	-1	0	0	origami_10s.jpg	0	0.0	0	72.24557193735379	72.2955537979724	0.0499818606185727	84126
84.226	50	199	0	0	first-aid_kit	599	199	0	stimuli\first-aid_kit\first-aid_kit_09s.jpg	8	-1	0	0	first-aid_kit_09s.jpg	0	0.0	0	72.3455739365891	72.3955572600826	0.0499833234935068	84226
84.326	50	200	0	0	sunflower	1584	200	0	stimuli\sunflower\sunflower_01b.jpg	0	-1	0	0	sunflower_01b.jpg	0	0.0	0	72.44557764253109	72.49555779644291	0.049980153911747004	84326
84.426	50	201	0	0	jalapeno	838	201	0	stimuli\jalapeno\jalapeno_07s.jpg	6	-1	0	0	jalapeno_07s.jpg	0	0.0	0	72.54558086080941	72.5955415099743	0.0499606491648592	84426
84.526	50	202	0	0	rose	1334	202	0	stimuli\rose\rose_12s.jpg	11	-1	0	0	rose_12s.jpg	0	0.0	0	72.6455560410395	72.69554009591229	0.0499840548727661	84526
84.626	50	203	0	0	corkboard	410	203	0	stimuli\corkboard\corkboard_12s.jpg	11	-1	0	0	corkboard_12s.jpg	0	0.0	0	72.74556364788441	72.7955472150934	0.049983567208983004	84626
84.726	50	204	0	0	mascara	978	204	0	stimuli\mascara\mascara_06s.jpg	5	-1	0	0	mascara_06s.jpg	0	0.0	0	72.84558612707771	72.8955504334299	0.0499643063521944	84726
84.826	50	205	0	0	cornbread	413	205	0	stimuli\cornbread\cornbread_07s.jpg	6	-1	0	0	cornbread_07s.jpg	0	0.0	0	72.9455734977382	72.99556876783029	0.0499952700920403	84826
84.926	50	206	0	0	dog	495	206	0	stimuli\dog\dog_11s.jpg	10	-1	0	0	dog_11s.jpg	0	0.0	0	73.045597927412	73.09555662615459	0.0499586987425573	84926
85.026	50	207	0	0	lasagna	898	207	0	stimuli\lasagna\lasagna_06s.jpg	5	-1	0	0	lasagna_06s.jpg	0	0.0	0	73.14559700095559	73.1955752043868	0.0499782034312375	85026
85.126	50	208	0	0	treadmill	1706	208	0	stimuli\treadmill\treadmill_09n.jpg	8	-1	0	0	treadmill_09n.jpg	0	0.0	0	73.2456199678127	73.29558110458309	0.0499611367704347	85126
85.226	50	209	0	0	mistletoe	1007	209	0	stimuli\mistletoe\mistletoe_08s.jpg	7	-1	0	0	mistletoe_08s.jpg	0	0.0	0	73.34560148703171	73.3955631114659	0.0499616244342178	85226
85.326	50	210	0	0	barnacle	75	210	0	stimuli\barnacle\barnacle_04n.jpg	3	-1	0	0	barnacle_04n.jpg	0	0.0	0	73.4456032424932	73.4955814459245	0.0499782034312375	85326
85.426	50	211	0	0	crown	448	211	0	stimuli\crown\crown_09s.jpg	8	-1	0	0	crown_09s.jpg	0	0.0	0	73.54560621693959	73.59558563947209	0.0499794225324877	85426
85.526	50	212	0	0	kangaroo	862	212	0	stimuli\kangaroo\kangaroo_10s.jpg	9	-1	0	0	kangaroo_10s.jpg	0	0.0	0	73.6455906619085	73.6955873948755	0.0499967329669744	85526
85.626	50	213	0	0	lectern	908	213	0	stimuli\lectern\lectern_09s.jpg	8	-1	0	0	lectern_09s.jpg	0	0.0	0	73.7456107030157	73.7955769598484	0.0499662568327039	85626
85.726	50	214	0	0	wedge	1801	214	0	stimuli\wedge\wedge_09s.jpg	8	-1	0	0	wedge_09s.jpg	0	0.0	0	73.8455941727734	73.8955677438644	0.049973571090959006	85726
85.826	50	215	0	0	roller_coaster	1325	215	0	stimuli\roller_coaster\roller_coaster_08s.jpg	7	-1	0	0	roller_coaster_08s.jpg	0	0.0	0	73.9455910520046	73.99557218118571	0.0499811291811056	85826
85.926	50	216	0	0	kiwi	876	216	0	stimuli\kiwi\kiwi_08s.jpg	7	-1	0	0	kiwi_08s.jpg	0	0.0	0	74.0455911007593	74.09557613090149	0.0499850301421247	85926
86.026	50	217	0	0	crib	441	217	0	stimuli\crib\crib_12s.jpg	11	-1	0	0	crib_12s.jpg	0	0.0	0	74.14559578191259	74.19557959295341	0.0499838110408746	86026
86.126	50	218	0	0	mosquito_net	1021	218	0	stimuli\mosquito_net\mosquito_net_01b.jpg	0	-1	0	0	mosquito_net_01b.jpg	0	0.0	0	74.2455982687534	74.29558329889551	0.0499850301421247	86126
86.226	50	219	0	0	coil	384	219	0	stimuli\coil\coil_09s.jpg	8	-1	0	0	coil_09s.jpg	0	0.0	0	74.3456000242149	74.39558115333779	0.04998112912289799	86226
86.326	50	220	0	0	banana_peel	64	220	0	stimuli\banana_peel\banana_peel_04s.jpg	3	-1	0	0	banana_peel_04s.jpg	0	0.0	0	74.44560494914191	74.4955863220966	0.0499813729547895	86326
86.426	50	221	0	0	tent	1643	221	0	stimuli\tent\tent_09n.jpg	8	-1	0	0	tent_09n.jpg	0	0.0	0	74.54560816742008	74.5955936851678	0.0499855177477002	86426
86.526	50	222	0	0	drill	520	222	0	stimuli\drill\drill_05s.jpg	4	-1	0	0	drill_05s.jpg	0	0.0	0	74.6456152866594	74.6955983662629	0.0499830796034075	86526
86.626	50	223	0	0	dress	518	223	0	stimuli\dress\dress_08s.jpg	7	-1	0	0	dress_08s.jpg	0	0.0	0	74.74563410872359	74.795619870245	0.0499857615213841	86626
86.726	50	224	0	0	dogfood	496	224	0	stimuli\dogfood\dogfood_08s.jpg	7	-1	0	0	dogfood_08s.jpg	0	0.0	0	74.84563708316999	74.8956001704792	0.0499630873091519	86726
86.826	50	225	0	0	omelet	1076	225	0	stimuli\omelet\omelet_06s.jpg	5	-1	0	0	omelet_06s.jpg	0	0.0	0	74.94563713192471	74.99562143062941	0.0499842987046577	86826
86.926	50	226	0	0	cow	426	226	0	stimuli\cow\cow_09s.jpg	8	-1	0	0	cow_09s.jpg	0	0.0	0	75.045643032121	75.0956219670479	0.0499789349269122	86926
87.026	50	227	0	0	suitcase	1581	227	0	stimuli\suitcase\suitcase_02s.jpg	1	-1	0	0	suitcase_02s.jpg	0	0.0	0	75.1456435685395	75.19561348244319	0.0499699139036238	87026
87.126	50	228	0	0	dartboard	474	228	0	stimuli\dartboard\dartboard_09s.jpg	8	-1	0	0	dartboard_09s.jpg	0	0.0	0	75.2456514191581	75.2956291349838	0.049977715825661996	87126
87.226	50	229	0	0	juice	854	229	0	stimuli\juice\juice_04s.jpg	3	-1	0	0	juice_04s.jpg	0	0.0	0	75.3456485422212	75.3956323533203	0.0499838110990822	87226
87.326	50	230	0	0	dustpan	535	230	0	stimuli\dustpan\dustpan_03n.jpg	2	-1	0	0	dustpan_03n.jpg	0	0.0	0	75.445652248105	75.49563484016109	0.0499825920560397	87326
87.426	50	231	0	0	cd_player	290	231	0	stimuli\cd_player\cd_player_09s.jpg	8	-1	0	0	cd_player_09s.jpg	0	0.0	0	75.5456413254724	75.595620504173	0.0499791787005961	87426
87.526	50	232	0	0	gavel	665	232	0	stimuli\gavel\gavel_09s.jpg	8	-1	0	0	gavel_09s.jpg	0	0.0	0	75.6456618541852	75.69563615671359	0.0499743025284261	87526
87.626	50	233	0	0	bear	105	233	0	stimuli\bear\bear_04s.jpg	3	-1	0	0	bear_04s.jpg	0	0.0	0	75.7456572705996	75.795643032121	0.0499857615213841	87626
87.726	50	234	0	0	frog	644	234	0	stimuli\frog\frog_05s.jpg	4	-1	0	0	frog_05s.jpg	0	0.0	0	75.8456636584015	75.8956423494965	0.0499786910950206	87726
87.826	50	235	0	0	pet_food	1157	235	0	stimuli\pet_food\pet_food_02s.jpg	1	-1	0	0	pet_food_02s.jpg	0	0.0	0	75.9456507852883	75.9956458115485	0.0499950262601487	87826
87.926	50	236	0	0	calamari	239	236	0	stimuli\calamari\calamari_05s.jpg	4	-1	0	0	calamari_05s.jpg	0	0.0	0	76.045668875915	76.095638302213	0.0499694262980483	87926
88.026	50	237	0	0	pickax	1166	237	0	stimuli\pickax\pickax_07s.jpg	6	-1	0	0	pickax_07s.jpg	0	0.0	0	76.1456728256308	76.1956337186275	0.0499608929967508	88026
88.126	50	238	0	0	iguana	825	238	0	stimuli\iguana\iguana_06s.jpg	5	-1	0	0	iguana_06s.jpg	0	0.0	0	76.24567189911609	76.29565400356658	0.0499821044504642	88126
88.226	50	239	0	0	rubber_band	1337	239	0	stimuli\rubber_band\rubber_band_09s.jpg	8	-1	0	0	rubber_band_09s.jpg	0	0.0	0	76.3456597574404	76.3956418618327	0.0499821043922566	88226
88.326	50	240	0	0	rudder	1339	240	0	stimuli\rudder\rudder_08s.jpg	7	-1	0	0	rudder_08s.jpg	0	0.0	0	76.4456761414185	76.4956589772482	0.0499828358297236	88326
88.426	50	241	0	0	slot	1469	241	0	stimuli\slot\slot_09s.jpg	8	-1	0	0	slot_09s.jpg	0	0.0	0	76.5456830168259	76.5956434222171	0.0499604053911753	88426
88.526	50	242	0	0	spur	1525	242	0	stimuli\spur\spur_11s.jpg	10	-1	0	0	spur_11s.jpg	0	0.0	0	76.6456664865837	76.69566126907009	0.0499947824864648	88526
88.626	50	243	0	0	basket	82	243	0	stimuli\basket\basket_03s.jpg	2	-1	0	0	basket_03s.jpg	0	0.0	0	76.7456860400853	76.795667656872	0.0499816167866811	88626
88.726	50	244	0	0	mold1	1012	244	0	stimuli\mold1\mold1_09s.jpg	8	-1	0	0	mold1_09s.jpg	0	0.0	0	76.8456851136289	76.89566697418921	0.049981860560364993	88726
88.826	50	245	0	0	hook1	793	245	0	stimuli\hook1\hook1_12s.jpg	11	-1	0	0	hook1_12s.jpg	0	0.0	0	76.9456895509502	76.9956558077247	0.0499662567744963	88826
88.926	50	246	0	0	braid	190	246	0	stimuli\braid\braid_07s.jpg	6	-1	0	0	braid_07s.jpg	0	0.0	0	77.04569033114241	77.0956712164916	0.0499808853492141	88926
89.026	50	247	0	0	knitting	880	247	0	stimuli\knitting\knitting_09s.jpg	8	-1	0	0	knitting_09s.jpg	0	0.0	0	77.1456777018029	77.1956571242772	0.04997942247428	89026
89.126	50	248	0	0	crane	431	248	0	stimuli\crane\crane_09s.jpg	8	-1	0	0	crane_09s.jpg	0	0.0	0	77.2457014000393	77.2956859425758	0.0499845425365493	89126
89.226	50	249	0	0	water_cooler	1788	249	0	stimuli\water_cooler\water_cooler_07s.jpg	6	-1	0	0	water_cooler_07s.jpg	0	0.0	0	77.34570120502029	77.3956823342014	0.0499811291811056	89226
89.326	50	250	0	0	chocolate	338	250	0	stimuli\chocolate\chocolate_09s.jpg	8	-1	0	0	chocolate_09s.jpg	0	0.0	0	77.4457014976069	77.4956848210422	0.0499833234352991	89326
89.426	50	251	0	0	golf_cart	689	251	0	stimuli\golf_cart\golf_cart_05s.jpg	4	-1	0	0	golf_cart_05s.jpg	0	0.0	0	77.5457091044518	77.59569096501221	0.049981860560364993	89426
89.526	50	252	0	0	flagpole	606	252	0	stimuli\flagpole\flagpole_07s.jpg	6	-1	0	0	flagpole_07s.jpg	0	0.0	0	77.6457062274567	77.69567150901999	0.0499652815633453	89526
89.626	50	253	0	0	saffron	1345	253	0	stimuli\saffron\saffron_03s.jpg	2	-1	0	0	saffron_03s.jpg	0	0.0	0	77.7457101771724	77.795685454912	0.049975277739577	89626
89.726	50	254	0	0	vial	1760	254	0	stimuli\vial\vial_03s.jpg	2	-1	0	0	vial_03s.jpg	0	0.0	0	77.8457112011965	77.89567648275991	0.0499652815633453	89726
89.826	50	255	0	0	road_sign	1315	255	0	stimuli\road_sign\road_sign_11s.jpg	10	-1	0	0	road_sign_11s.jpg	0	0.0	0	77.9457141756429	77.99569384194909	0.0499796663061716	89826
89.926	50	256	0	0	fruit	645	256	0	stimuli\fruit\fruit_07s.jpg	6	-1	0	0	fruit_07s.jpg	0	0.0	0	78.04571690631559	78.09567901835541	0.0499621120397933	89926
90.026	50	257	0	0	kale	860	257	0	stimuli\kale\kale_09s.jpg	8	-1	0	1	kale_09s.jpg	0	0.0	0	78.1457193931565	78.1956834556768	0.0499640625203028	90026
90.126	50	258	0	0	orchid	1081	258	0	stimuli\orchid\orchid_09s.jpg	8	-1	0	0	orchid_09s.jpg	0	0.0	0	78.2457279752707	78.2956913063535	0.0499633310828358	90126
90.226	50	259	0	0	crepe	440	259	0	stimuli\crepe\crepe_12s.jpg	11	-1	0	0	crepe_12s.jpg	0	0.0	0	78.3457036431064	78.3956738008419	0.0499701577355154	90226
90.326	50	260	0	0	rug	1340	260	0	stimuli\rug\rug_08s.jpg	7	-1	0	0	rug_08s.jpg	0	0.0	0	78.4456968652084	78.4956792134326	0.0499823482241482	90326
90.426	50	261	0	0	sequin	1404	261	0	stimuli\sequin\sequin_09s.jpg	8	-1	0	0	sequin_09s.jpg	1	0.392162460833788	1	78.54571349301841	78.595679505961	0.0499660129426047	90426
90.526	50	262	0	0	eggnog	549	262	0	stimuli\eggnog\eggnog_07s.jpg	6	-1	0	0	eggnog_07s.jpg	0	0.0	0	78.6457028141594	78.6956866252003	0.0499838110408746	90526
90.626	50	263	0	0	goose	693	263	0	stimuli\goose\goose_12s.jpg	11	-1	0	0	goose_12s.jpg	0	0.0	0	78.7457040819572	78.795715199667	0.0500111177098006	90626
90.726	50	264	0	0	hot_chocolate	803	264	0	stimuli\hot_chocolate\hot_chocolate_06s.jpg	5	-1	0	0	hot_chocolate_06s.jpg	0	0.0	0	78.84572266018951	78.89572134363699	0.0499986834474839	90726
90.826	50	265	0	0	mongoose	1016	265	0	stimuli\mongoose\mongoose_04s.jpg	3	-1	0	0	mongoose_04s.jpg	0	0.0	0	78.9457383127883	78.9957218800555	0.0499835672671907	90826
90.926	50	266	0	0	board	152	266	0	stimuli\board\board_09s.jpg	8	-1	0	0	board_09s.jpg	0	0.0	0	79.04574543196941	79.0957219288102	0.0499764968408272	90926
91.026	50	267	0	0	weasel	1797	267	0	stimuli\weasel\weasel_09s.jpg	8	-1	0	0	weasel_09s.jpg	0	0.0	0	79.1457515759976	79.19572465942471	0.0499730834271759	91026
91.126	50	268	0	0	rat	1285	268	0	stimuli\rat\rat_02s.jpg	1	-1	0	0	rat_02s.jpg	0	0.0	0	79.24574723618571	79.2957281215349	0.0499808853492141	91126
91.226	50	269	0	0	saxophone	1368	269	0	stimuli\saxophone\saxophone_10s.jpg	9	-1	0	0	saxophone_10s.jpg	0	0.0	0	79.3457499668584	79.39573012077021	0.049980153911747004	91226
91.326	50	270	0	0	comic_book	391	270	0	stimuli\comic_book\comic_book_02s.jpg	1	-1	0	0	comic_book_02s.jpg	0	0.0	0	79.4457353870384	79.4957184667001	0.0499830796616152	91326
91.426	50	271	0	0	tortilla	1687	271	0	stimuli\tortilla\tortilla_12s.jpg	11	-1	0	0	tortilla_12s.jpg	0	0.0	0	79.54575615958309	79.5957341192407	0.0499779596575536	91426
91.526	50	272	0	0	hovercraft	808	272	0	stimuli\hovercraft\hovercraft_03s.jpg	2	-1	0	0	hovercraft_03s.jpg	0	0.0	0	79.6457352407742	79.6957017413806	0.0499665006063879	91526
91.626	50	273	0	0	rack1	1268	273	0	stimuli\rack1\rack1_09s.jpg	8	-1	0	0	rack1_09s.jpg	0	0.0	0	79.74572748766509	79.7957081291825	0.0499806415173225	91626
91.726	50	274	0	0	cannonball	261	274	0	stimuli\cannonball\cannonball_04s.jpg	3	-1	0	0	cannonball_04s.jpg	0	0.0	0	79.8457319249865	79.8957106160233	0.049978691036812996	91726
91.826	50	275	0	0	strawberry	1570	275	0	stimuli\strawberry\strawberry_09n.jpg	8	-1	0	0	strawberry_09n.jpg	0	0.0	0	79.9457297794288	79.99574699235379	0.0500172129250132	91826
91.926	50	276	0	0	eggshell	551	276	0	stimuli\eggshell\eggshell_03s.jpg	2	-1	0	0	eggshell_03s.jpg	0	0.0	0	80.0457534777233	80.0957180278492	0.0499645501258783	91926
92.026	50	277	0	0	saw	1366	277	0	stimuli\saw\saw_07s.jpg	6	-1	0	0	saw_07s.jpg	0	0.0	0	80.1457340217312	80.1957158823498	0.0499818606185727	92026
92.126	50	278	0	0	bike	123	278	0	stimuli\bike\bike_10s.jpg	9	-1	0	0	bike_10s.jpg	0	0.0	0	80.2457445542677	80.2957249520114	0.0499803977436386	92126
92.226	50	279	0	0	chute	342	279	0	stimuli\chute\chute_06s.jpg	5	-1	0	0	chute_06s.jpg	0	0.0	0	80.3457460658974	80.39572475699241	0.0499786910950206	92226
92.326	50	280	0	0	shaker	1408	280	0	stimuli\shaker\shaker_08s.jpg	7	-1	0	0	shaker_08s.jpg	0	0.0	0	80.4457466022577	80.4957277314388	0.0499811291811056	92326
92.426	50	281	0	0	valve	1751	281	0	stimuli\valve\valve_02s.jpg	1	-1	0	0	valve_02s.jpg	0	0.0	0	80.545778346248	80.59575947542909	0.0499811291811056	92426
92.526	50	282	0	0	macadamia	951	282	0	stimuli\macadamia\macadamia_10s.jpg	9	-1	0	0	macadamia_10s.jpg	0	0.0	0	80.64578229596371	80.6957661070046	0.0499838110408746	92526
92.626	50	283	0	0	piano	1165	283	0	stimuli\piano\piano_04n.jpg	3	-1	0	0	piano_04n.jpg	0	0.0	0	80.7457903904142	80.795735923457	0.0499455330427736	92626
92.726	50	284	0	0	manhole	967	284	0	stimuli\manhole\manhole_03s.jpg	2	-1	0	0	manhole_03s.jpg	0	0.0	0	80.8457577687223	80.8957335341256	0.0499757654033601	92726
92.826	50	285	0	0	squid	1528	285	0	stimuli\squid\squid_09s.jpg	8	-1	0	0	squid_09s.jpg	0	0.0	0	80.9457624498755	80.9957401657011	0.049977715825661996	92826
92.926	50	286	0	0	incense	826	286	0	stimuli\incense\incense_10s.jpg	9	-1	0	0	incense_10s.jpg	0	0.0	0	81.0457642052788	81.09574216493641	0.0499779596575536	92926
93.026	50	287	0	0	horseshoe	799	287	0	stimuli\horseshoe\horseshoe_09s.jpg	8	-1	0	0	horseshoe_09s.jpg	0	0.0	0	81.14576474169729	81.1957461146521	0.0499813729547895	93026
93.126	50	288	0	0	crowbar	447	288	0	stimuli\crowbar\crowbar_03s.jpg	2	-1	0	0	crowbar_03s.jpg	0	0.0	0	81.245763571409	81.2957837100257	0.0500201386166736	93126
93.226	50	289	0	0	air_pump	6	289	0	stimuli\air_pump\air_pump_09s.jpg	8	-1	0	0	air_pump_09s.jpg	0	0.0	0	81.3457987286965	81.3957781511708	0.04997942247428	93226
93.326	50	290	0	0	crank	432	290	0	stimuli\crank\crank_10s.jpg	9	-1	0	0	crank_10s.jpg	0	0.0	0	81.44580267841229	81.49578258849209	0.0499799100798555	93326
93.426	50	291	0	0	chick	321	291	0	stimuli\chick\chick_03s.jpg	2	-1	0	0	chick_03s.jpg	0	0.0	0	81.5458071157336	81.5957687401678	0.0499616244342178	93426
93.526	50	292	0	0	antelope	26	292	0	stimuli\antelope\antelope_05n.jpg	4	-1	0	0	antelope_05n.jpg	0	0.0	0	81.64580911496891	81.69579804601379	0.0499889310449362	93526
93.626	50	293	0	0	pug	1249	293	0	stimuli\pug\pug_10s.jpg	9	-1	0	0	pug_10s.jpg	0	0.0	0	81.74580989516109	81.79577907768541	0.0499691825243644	93626
93.726	50	294	0	0	duct	527	294	0	stimuli\duct\duct_08s.jpg	7	-1	0	0	duct_08s.jpg	0	0.0	0	81.84579629061051	81.89578229596371	0.0499860053532757	93726
93.826	50	295	0	0	cake	237	295	0	stimuli\cake\cake_04s.jpg	3	-1	0	0	cake_04s.jpg	0	0.0	0	81.945827303105	81.9957857580157	0.0499584549106658	93826
93.926	50	296	0	0	hula_hoop	810	296	0	stimuli\hula_hoop\hula_hoop_04s.jpg	3	-1	0	1	hula_hoop_04s.jpg	0	0.0	0	82.0457895614672	82.09578434395371	0.0499947824864648	93926
94.026	50	297	0	0	hip	780	297	0	stimuli\hip\hip_12s.jpg	11	-1	0	0	hip_12s.jpg	0	0.0	0	82.1458022883162	82.19579268223609	0.0499903939198703	94026
94.126	50	298	0	0	crystal_ball	455	298	0	stimuli\crystal_ball\crystal_ball_06s.jpg	5	-1	0	0	crystal_ball_06s.jpg	0	0.0	0	82.2457950228127	82.29577200720091	0.049976984388195	94126
94.226	50	299	0	0	payphone	1127	299	0	stimuli\payphone\payphone_12s.jpg	11	-1	0	0	payphone_12s.jpg	0	0.0	0	82.345795559173	82.3957747378736	0.0499791787005961	94226
94.326	50	300	0	0	bedpan	109	300	0	stimuli\bedpan\bedpan_07s.jpg	6	-1	0	0	bedpan_07s.jpg	0	0.0	0	82.44576878892259	82.4957986799418	0.0500298910192214	94326
94.426	50	301	0	0	thermostat	1648	301	0	stimuli\thermostat\thermostat_12s.jpg	11	-1	0	0	thermostat_12s.jpg	1	0.492169580014888	1	82.54581540526121	82.5957782487385	0.0499628434772603	94426
94.526	50	302	0	0	chinaware	331	302	0	stimuli\chinaware\chinaware_10s.jpg	9	-1	0	0	chinaware_10s.jpg	0	0.0	0	82.6457981435233	82.695791463193	0.0499933196697384	94526
94.626	50	303	0	0	whale	1804	303	0	stimuli\whale\whale_03s.jpg	2	-1	0	0	whale_03s.jpg	0	0.0	0	82.7458001427585	82.7957810281659	0.0499808854074217	94626
94.726	50	304	0	0	puck	1245	304	0	stimuli\puck\puck_08s.jpg	7	-1	0	0	puck_08s.jpg	0	0.0	0	82.845817502006	82.8957854654873	0.0499679634813219	94726
94.826	50	305	0	0	glass	677	305	0	stimuli\glass\glass_10s.jpg	9	-1	0	0	glass_10s.jpg	0	0.0	0	82.94583973736741	82.9958191598998	0.0499794225324877	94826
94.926	50	306	0	0	pepper_mill	1151	306	0	stimuli\pepper_mill\pepper_mill_12s.jpg	11	-1	0	0	pepper_mill_12s.jpg	0	0.0	0	83.0458261328167	83.0958016543882	0.0499755215714686	94926
95.026	50	307	0	0	swing_set	1599	307	0	stimuli\swing_set\swing_set_11s.jpg	10	-1	0	0	swing_set_11s.jpg	0	0.0	0	83.14582374348541	83.1957958517596	0.0499721082742326	95026
95.126	50	308	0	0	orange	1078	308	0	stimuli\orange\orange_02s.jpg	1	-1	0	0	orange_02s.jpg	0	0.0	0	83.2458191598998	83.2957966319518	0.0499774720519781	95126
104.11	50	309	0	0	latch	900	0	1	stimuli\latch\latch_08s.jpg	7	-1	1	0	latch_08s.jpg	0	0.0	0	92.22942030947891	92.2793712063576	0.0499508968787268	104110
104.21	50	310	0	0	bag	54	1	1	stimuli\bag\bag_09s.jpg	8	-1	1	0	bag_09s.jpg	0	0.0	0	92.32940719259199	92.3793732055929	0.0499660130008124	104210
104.31	50	311	0	0	bone	161	2	1	stimuli\bone\bone_10s.jpg	9	-1	1	0	bone_10s.jpg	0	0.0	0	92.4294013899053	92.47939763526671	0.0499962453613989	104310
104.41	50	312	0	0	banner	70	3	1	stimuli\banner\banner_09s.jpg	8	-1	1	0	banner_09s.jpg	0	0.0	0	92.52939778153092	92.57939427066592	0.0499964891350828	104410
104.51	50	313	0	0	shoe_polish	1424	4	1	stimuli\shoe_polish\shoe_polish_07s.jpg	6	-1	1	0	shoe_polish_07s.jpg	0	0.0	0	92.62940197507851	92.67939968325659	0.0499977081781253	104510
104.61	50	314	0	0	polygraph	1217	5	1	stimuli\polygraph\polygraph_05s.jpg	4	-1	1	0	polygraph_05s.jpg	0	0.0	0	92.7294195780996	92.77940143865999	0.049981860560364993	104610
104.71	50	315	0	0	button2	231	6	1	stimuli\button2\button2_03s.jpg	2	-1	1	0	button2_03s.jpg	0	0.0	0	92.82940499827959	92.8793905160273	0.0499855177477002	104710
104.81	50	316	0	0	milk	1001	7	1	stimuli\milk\milk_06s.jpg	5	-1	1	0	milk_06s.jpg	0	0.0	0	92.9294243079494	92.9794069000054	0.0499825920560397	104810
104.91	50	317	0	0	pennant	1148	8	1	stimuli\pennant\pennant_12s.jpg	11	-1	1	0	pennant_12s.jpg	0	0.0	0	93.0294107033988	93.07939622114651	0.0499855177477002	104910
105.01	50	318	0	0	duckling	526	9	1	stimuli\duckling\duckling_08s.jpg	7	-1	1	0	duckling_08s.jpg	0	0.0	0	93.1294331826502	93.17940163373709	0.0499684510868974	105010
105.11	50	319	0	0	stereo	1549	10	1	stimuli\stereo\stereo_12s.jpg	11	-1	1	0	stereo_12s.jpg	0	0.0	0	93.2294334751787	93.2794116786681	0.0499782034894451	105110
105.21	50	320	0	0	cat	284	11	1	stimuli\cat\cat_03s.jpg	2	-1	1	0	cat_03s.jpg	0	0.0	0	93.32942060206551	93.37939929316049	0.0499786910950206	105210
105.31	50	321	0	0	basketball_hoop	84	12	1	stimuli\basketball_hoop\basketball_hoop_12s.jpg	11	-1	1	0	basketball_hoop_12s.jpg	0	0.0	0	93.42944137461019	93.47942128474821	0.0499799101380631	105310
105.41	50	322	0	0	toothpick	1681	13	1	stimuli\toothpick\toothpick_03s.jpg	2	-1	1	0	toothpick_03s.jpg	0	0.0	0	93.52941728627769	93.5794193830225	0.0500020967447199	105410
105.51	50	323	0	0	bonnet	163	14	1	stimuli\bonnet\bonnet_05s.jpg	4	-1	1	0	bonnet_05s.jpg	0	0.0	0	93.62944122834601	93.6794260146562	0.0499847863102332	105510
105.61	50	324	0	0	odometer	1071	15	1	stimuli\odometer\odometer_02s.jpg	1	-1	1	0	odometer_02s.jpg	0	0.0	0	93.72944493422979	93.77942338149299	0.0499784472631291	105610
105.71	50	325	0	0	anchor	21	16	1	stimuli\anchor\anchor_12s.jpg	11	-1	1	0	anchor_12s.jpg	0	0.0	0	93.8294288915931	93.8794273312087	0.0499984396155924	105710
105.81	50	326	0	0	flamingo	608	17	1	stimuli\flamingo\flamingo_07s.jpg	6	-1	1	0	flamingo_07s.jpg	0	0.0	0	93.92943332891451	93.9794310370926	0.0499977081781253	105810
105.91	50	327	0	0	gravestone	710	18	1	stimuli\gravestone\gravestone_12s.jpg	11	-1	1	0	gravestone_12s.jpg	0	0.0	0	94.0294538576272	94.0794154820614	0.0499616244342178	105910
106.01	50	328	0	0	board_game	153	19	1	stimuli\board_game\board_game_12s.jpg	11	-1	1	0	board_game_12s.jpg	0	0.0	0	94.1294587826123	94.179440399399	0.0499816167866811	106010
106.11	50	329	0	0	bow1	174	20	1	stimuli\bow1\bow1_04s.jpg	3	-1	1	0	bow1_04s.jpg	0	0.0	0	94.2294424961437	94.2794209434069	0.0499784472631291	106110
106.21	50	330	0	0	paper	1112	21	1	stimuli\paper\paper_01b.jpg	0	-1	1	0	paper_01b.jpg	0	0.0	0	94.32943547441391	94.3794175788644	0.0499821044504642	106210
106.31	50	331	0	0	lightning_bug	929	22	1	stimuli\lightning_bug\lightning_bug_01s.jpg	0	-1	1	0	lightning_bug_01s.jpg	0	0.0	0	94.429462342232	94.4794403018896	0.0499779596575536	106310
106.41	50	332	0	0	stingray	1556	23	1	stimuli\stingray\stingray_05s.jpg	4	-1	1	0	stingray_05s.jpg	0	0.0	0	94.52946531667841	94.579445714422	0.0499803977436386	106410
106.51	50	333	0	0	cot	420	24	1	stimuli\cot\cot_04s.jpg	3	-1	1	0	cot_04s.jpg	0	0.0	0	94.62948755209801	94.6794464946142	0.0499589425162412	106510
106.61	50	334	0	0	fountain_pen	637	25	1	stimuli\fountain_pen\fountain_pen_06s.jpg	5	-1	1	0	fountain_pen_06s.jpg	0	0.0	0	94.7294663894572	94.77944264240801	0.0499762529507279	106610
106.71	50	335	0	0	hookah	795	26	1	stimuli\hookah\hookah_01b.jpg	0	-1	1	0	hookah_01b.jpg	0	0.0	0	94.8294730210328	94.8794551254832	0.0499821044504642	106710
106.81	50	336	0	0	denture	478	27	1	stimuli\denture\denture_10s.jpg	9	-1	1	0	denture_10s.jpg	0	0.0	0	94.9294740450568	94.9794505418395	0.0499764967826195	106810
106.91	50	337	0	0	metal_detector	996	28	1	stimuli\metal_detector\metal_detector_07s.jpg	6	-1	1	0	metal_detector_07s.jpg	0	0.0	0	95.0294718995574	95.0794493715512	0.0499774719937705	106910
107.01	50	338	0	0	ice_cube	819	29	1	stimuli\ice_cube\ice_cube_11s.jpg	10	-1	1	0	ice_cube_11s.jpg	0	0.0	0	95.1294709730428	95.1794516146183	0.0499806415755302	107010
107.11	50	339	0	0	bread	194	30	1	stimuli\bread\bread_10s.jpg	9	-1	1	0	bread_10s.jpg	0	0.0	0	95.22947272850429	95.2794609281118	0.0499881996074691	107110
107.21	50	340	0	0	bologna	158	31	1	stimuli\bologna\bologna_05s.jpg	4	-1	1	0	bologna_05s.jpg	0	0.0	0	95.3294786286424	95.3794551254832	0.0499764968408272	107210
107.31	50	341	0	0	cable	234	32	1	stimuli\cable\cable_09s.jpg	8	-1	1	0	cable_09s.jpg	0	0.0	0	95.42947794601791	95.47945956280451	0.0499816167866811	107310
107.41	50	342	0	0	radar	1271	33	1	stimuli\radar\radar_08s.jpg	7	-1	1	0	radar_08s.jpg	0	0.0	0	95.5294814080698	95.5794537601178	0.0499723520479165	107410
107.51	50	343	0	0	handlebar	749	34	1	stimuli\handlebar\handlebar_11s.jpg	10	-1	1	0	handlebar_11s.jpg	0	0.0	0	95.62947536160941	95.6794489327003	0.049973571090959006	107510
107.61	50	344	0	0	nail_polish	1049	35	1	stimuli\nail_polish\nail_polish_02s.jpg	1	-1	1	0	nail_polish_02s.jpg	0	0.0	0	95.7294719970669	95.77945141954109	0.04997942247428	107610
107.71	50	345	0	0	ladybug	888	36	1	stimuli\ladybug\ladybug_03s.jpg	2	-1	1	0	ladybug_03s.jpg	0	0.0	0	95.8294713143841	95.8794841387426	0.0500128243584186	107710
107.81	50	346	0	0	jigsaw_puzzle	851	37	1	stimuli\jigsaw_puzzle\jigsaw_puzzle_04s.jpg	3	-1	1	0	jigsaw_puzzle_04s.jpg	0	0.0	0	95.92949745076479	95.9794793113251	0.049981860560364993	107810
107.91	50	347	0	0	skin	1456	38	1	stimuli\skin\skin_01b.jpg	0	-1	1	0	skin_01b.jpg	0	0.0	0	96.02950773946941	96.079483017209	0.049975277739577	107910
108.01	50	348	0	0	train	1698	39	1	stimuli\train\train_12n.jpg	11	-1	1	0	train_12n.jpg	0	0.0	0	96.12950266827829	96.17946868127909	0.0499660130008124	108010
108.11	50	349	0	0	blazer	137	40	1	stimuli\blazer\blazer_11s.jpg	10	-1	1	0	blazer_11s.jpg	0	0.0	0	96.22950808081079	96.279470924288	0.0499628434772603	108110
108.21	50	350	0	0	rattle	1287	41	1	stimuli\rattle\rattle_02s.jpg	1	-1	1	0	rattle_02s.jpg	0	0.0	0	96.3295149562182	96.37949120922708	0.0499762530089356	108210
108.31	50	351	0	0	cookie_cutter	401	42	1	stimuli\cookie_cutter\cookie_cutter_05s.jpg	4	-1	1	0	cookie_cutter_05s.jpg	0	0.0	0	96.4294879421941	96.47946907137519	0.0499811291811056	108310
108.41	50	352	0	0	revolver	1304	43	1	stimuli\revolver\revolver_01s.jpg	0	-1	1	0	revolver_01s.jpg	0	0.0	0	96.52949749951951	96.57947545911881	0.0499779595993459	108410
108.51	50	353	0	0	flower	619	44	1	stimuli\flower\flower_12s.jpg	11	-1	1	0	flower_12s.jpg	0	0.0	0	96.6295148587087	96.6794823345845	0.0499674758757465	108510
108.61	50	354	0	0	yogurt	1848	45	1	stimuli\yogurt\yogurt_04s.jpg	3	-1	1	0	yogurt_04s.jpg	0	0.0	0	96.72950198559559	96.77950115664859	0.0499991710530594	108610
108.71	50	355	0	0	kebab	865	46	1	stimuli\kebab\kebab_04n.jpg	3	-1	1	0	kebab_04n.jpg	0	0.0	0	96.8295098362723	96.8794829196995	0.0499730834271759	108710
108.81	50	356	0	0	calf2	242	47	1	stimuli\calf2\calf2_11s.jpg	10	-1	1	0	calf2_11s.jpg	0	0.0	0	96.9295057402342	96.97948101797371	0.049975277739577	108810
108.91	50	357	0	0	twig	1740	48	1	stimuli\twig\twig_09s.jpg	8	-1	1	0	twig_09s.jpg	0	0.0	0	97.0295062766527	97.0794913067366	0.0499850300839171	108910
109.01	50	358	0	0	stroller	1574	49	1	stimuli\stroller\stroller_08s.jpg	7	-1	1	0	stroller_08s.jpg	0	0.0	0	97.1295097387047	97.1794898926746	0.0499801539699547	109010
109.11	50	359	0	0	hay	761	50	1	stimuli\hay\hay_05s.jpg	4	-1	1	0	hay_05s.jpg	0	0.0	0	97.22950783703709	97.27949457376958	0.0499867367325351	109110
109.21	50	360	0	0	chip	333	51	1	stimuli\chip\chip_12s.jpg	11	-1	1	0	chip_12s.jpg	0	0.0	0	97.3295039848308	97.37951875966971	0.0500147748389281	109210
109.31	50	361	0	0	clothes	361	52	1	stimuli\clothes\clothes_04s.jpg	3	-1	1	0	clothes_04s.jpg	0	0.0	0	97.4295364602003	97.4795158827328	0.0499794225324877	109310
109.41	50	362	0	0	sink	1447	53	1	stimuli\sink\sink_07s.jpg	6	-1	1	0	sink_07s.jpg	0	0.0	0	97.5295279756538	97.57950520387391	0.0499772282200865	109410
109.51	50	363	0	0	chandelier	305	54	1	stimuli\chandelier\chandelier_04s.jpg	3	-1	1	0	chandelier_04s.jpg	0	0.0	0	97.6295250987168	97.67950037645642	0.049975277739577	109510
109.61	50	364	0	0	gearshift	668	55	1	stimuli\gearshift\gearshift_11n.jpg	10	-1	1	0	gearshift_11n.jpg	0	0.0	0	97.72952441603408	97.7795055452152	0.0499811291811056	109610
109.71	50	365	0	0	tablecloth	1609	56	1	stimuli\tablecloth\tablecloth_05s.jpg	4	-1	1	0	tablecloth_05s.jpg	0	0.0	0	97.8295266591012	97.8795097387047	0.0499830796034075	109710
109.81	50	366	0	0	swab	1590	57	1	stimuli\swab\swab_10s.jpg	9	-1	1	0	swab_10s.jpg	0	0.0	0	97.92953572876291	97.97953173029242	0.0499960015295073	109810
109.91	50	367	0	0	duffel_bag	529	58	1	stimuli\duffel_bag\duffel_bag_06s.jpg	5	-1	1	0	duffel_bag_06s.jpg	0	0.0	0	98.0295540632214	98.07953446096509	0.0499803977436386	109910
110.01	50	368	0	0	pantsuit	1109	59	1	stimuli\pantsuit\pantsuit_02s.jpg	1	-1	1	0	pantsuit_02s.jpg	0	0.0	0	98.1295553310192	98.1795184183284	0.0499630873091519	110010
110.11	50	369	0	0	aircraft_carrier	9	60	1	stimuli\aircraft_carrier\aircraft_carrier_12s.jpg	11	-1	1	0	aircraft_carrier_12s.jpg	0	0.0	0	98.2295575740864	98.27954016608419	0.0499825919978321	110110
110.21	50	370	0	0	ski_pole	1455	61	1	stimuli\ski_pole\ski_pole_09s.jpg	8	-1	1	0	ski_pole_09s.jpg	0	0.0	0	98.3295612799702	98.3795382644166	0.0499769844464026	110210
110.31	50	371	0	0	toe	1668	62	1	stimuli\toe\toe_12s.jpg	11	-1	1	0	toe_12s.jpg	0	0.0	0	98.4295608411194	98.47952636651459	0.0499655253952369	110310
110.41	50	372	0	0	album	11	63	1	stimuli\album\album_05s.jpg	4	-1	1	0	album_05s.jpg	0	0.0	0	98.5295652784407	98.57954445714131	0.0499791787005961	110410
110.51	50	373	0	0	videocassette	1761	64	1	stimuli\videocassette\videocassette_12n.jpg	11	-1	1	0	videocassette_12n.jpg	0	0.0	0	98.6295670339023	98.6795347535517	0.0499677196494304	110510
110.61	50	374	0	0	watch	1786	65	1	stimuli\watch\watch_10s.jpg	9	-1	1	0	watch_10s.jpg	0	0.0	0	98.7295690331375	98.7795521127409	0.0499830796034075	110610
110.71	50	375	0	0	camera2	247	66	1	stimuli\camera2\camera2_10s.jpg	9	-1	1	0	camera2_10s.jpg	0	0.0	0	98.82957078854089	98.8795509424526	0.049980153911747004	110710
110.81	50	376	0	0	paperclip	1116	67	1	stimuli\paperclip\paperclip_10s.jpg	9	-1	1	0	paperclip_10s.jpg	0	0.0	0	98.92955791542771	98.9795575740864	0.0499996586586349	110810
110.91	50	377	0	0	bus	226	68	1	stimuli\bus\bus_04n.jpg	3	-1	1	0	bus_04n.jpg	0	0.0	0	99.0295794194099	99.07955664762991	0.0499772282200865	110910
111.01	50	378	0	0	splinter	1516	69	1	stimuli\splinter\splinter_11s.jpg	10	-1	1	0	splinter_11s.jpg	0	0.0	0	99.12956264533571	99.17955913447081	0.0499964891350828	111010
111.11	50	379	0	0	slime	1465	70	1	stimuli\slime\slime_12s.jpg	11	-1	1	0	slime_12s.jpg	0	0.0	0	99.2295819550054	99.279561133706	0.0499791787005961	111110
111.21	50	380	0	0	pot	1230	71	1	stimuli\pot\pot_07s.jpg	6	-1	1	0	pot_07s.jpg	0	0.0	0	99.32955932948971	99.37953387584999	0.0499745463603176	111210
111.31	50	381	0	0	medal	991	72	1	stimuli\medal\medal_07s.jpg	6	-1	1	0	medal_07s.jpg	0	0.0	0	99.4295542582986	99.4795331931673	0.0499789348687045	111310
111.41	50	382	0	0	onion	1077	73	1	stimuli\onion\onion_01b.jpg	0	-1	1	0	onion_01b.jpg	0	0.0	0	99.52955820801441	99.57954080001221	0.0499825919978321	111410
111.51	50	383	0	0	bobsled	155	74	1	stimuli\bobsled\bobsled_01s.jpg	0	-1	1	0	bobsled_01s.jpg	0	0.0	0	99.6295602072496	99.6795388982864	0.049978691036812996	111510
111.61	50	384	0	0	nut	1066	75	1	stimuli\nut\nut_10s.jpg	9	-1	1	0	nut_10s.jpg	0	0.0	0	99.72955903696129	99.77954162895911	0.0499825919978321	111610
111.71	50	385	0	0	dolphin	502	76	1	stimuli\dolphin\dolphin_11n.jpg	10	-1	1	0	dolphin_11n.jpg	0	0.0	0	99.82956713141171	99.87954679771792	0.0499796663061716	111710
111.81	50	386	0	0	jeans	842	77	1	stimuli\jeans\jeans_05s.jpg	4	-1	1	0	jeans_05s.jpg	0	0.0	0	99.9295666925609	99.9795626940904	0.0499960015295073	111810
111.91	50	387	0	0	trampoline	1701	78	1	stimuli\trampoline\trampoline_04s.jpg	3	-1	1	0	trampoline_04s.jpg	0	0.0	0	100.02958063845301	100.07956225524	0.0499816167866811	111910
112.01	50	388	0	0	gyro	730	79	1	stimuli\gyro\gyro_02s.jpg	1	-1	1	0	gyro_02s.jpg	0	0.0	0	100.12958410050501	100.179564010643	0.0499799101380631	112010
112.11	50	389	0	0	dagger	469	80	1	stimuli\dagger\dagger_08s.jpg	7	-1	1	0	dagger_08s.jpg	0	0.0	0	100.229585124529	100.27959160984001	0.0500064853113145	112110
112.21	50	390	0	0	coat	369	81	1	stimuli\coat\coat_10s.jpg	9	-1	1	0	coat_10s.jpg	0	0.0	0	100.32959126849899	100.37957069103099	0.0499794225324877	112210
112.31	50	391	0	0	ramp	1283	82	1	stimuli\ramp\ramp_05s.jpg	4	-1	1	0	ramp_05s.jpg	0	0.0	0	100.42960472678499	100.479570739786	0.0499660130008124	112310
112.41	50	392	0	0	acorn	3	83	1	stimuli\acorn\acorn_12s.jpg	11	-1	1	0	acorn_12s.jpg	0	0.0	0	100.529590146965	100.57957712758801	0.0499869806226343	112410
112.51	50	393	0	0	scrabble	1385	84	1	stimuli\scrabble\scrabble_04s.jpg	3	-1	1	0	scrabble_04s.jpg	0	0.0	0	100.629592146201	100.679576201132	0.0499840549309738	112510
112.61	50	394	0	0	bed	108	85	1	stimuli\bed\bed_09n.jpg	8	-1	1	0	bed_09n.jpg	0	0.0	0	100.729596339748	100.779578200367	0.0499818606185727	112610
112.71	50	395	0	0	puffin	1248	86	1	stimuli\puffin\puffin_02s.jpg	1	-1	1	0	puffin_02s.jpg	0	0.0	0	100.82959907042101	100.87957849289499	0.04997942247428	112710
112.81	50	396	0	0	french_fries	641	87	1	stimuli\french_fries\french_fries_02s.jpg	1	-1	1	0	french_fries_02s.jpg	0	0.0	0	100.92960618965999	100.979580735962	0.049974546302110005	112810
112.91	50	397	0	0	paper_plate	1114	88	1	stimuli\paper_plate\paper_plate_09s.jpg	8	-1	1	0	paper_plate_09s.jpg	0	0.0	0	101.029630375502	101.079606384679	0.049976009177044006	112910
113.01	50	398	0	0	magnet	956	89	1	stimuli\magnet\magnet_12s.jpg	11	-1	1	0	magnet_12s.jpg	0	0.0	0	101.129628717608	101.17960692104	0.0499782034312375	113010
113.11	50	399	0	0	photo_booth	1163	90	1	stimuli\photo_booth\photo_booth_05s.jpg	4	-1	1	0	photo_booth_05s.jpg	0	0.0	0	101.229624134023	101.279612821236	0.0499886872130446	113110
113.21	50	400	0	0	folder	625	91	1	stimuli\folder\folder_02s.jpg	1	-1	1	0	folder_02s.jpg	0	0.0	0	101.329629546555	101.379610431904	0.0499808853492141	113210
113.31	50	401	0	0	mulberry	1037	92	1	stimuli\mulberry\mulberry_11s.jpg	10	-1	1	0	mulberry_11s.jpg	0	0.0	0	101.42963203339599	101.479614869226	0.0499828358297236	113310
113.41	50	402	0	0	laundry_basket	902	93	1	stimuli\laundry_basket\laundry_basket_01b.jpg	0	-1	1	0	laundry_basket_01b.jpg	0	0.0	0	101.52963671454901	101.579617599898	0.0499808853492141	113410
113.51	50	403	0	0	punch2	1255	94	1	stimuli\punch2\punch2_10s.jpg	9	-1	1	0	punch2_10s.jpg	0	0.0	0	101.629641395702	101.67961642961001	0.0499750339076854	113510
113.61	50	404	0	0	quilt	1264	95	1	stimuli\quilt\quilt_08s.jpg	7	-1	1	0	quilt_08s.jpg	0	0.0	0	101.72964022541402	101.77959746128201	0.0499572358676232	113610
113.71	50	405	0	0	lawnmower	905	96	1	stimuli\lawnmower\lawnmower_05n.jpg	4	-1	1	0	lawnmower_05n.jpg	0	0.0	0	101.829622232297	101.879606043338	0.0499838110408746	113710
113.81	50	406	0	0	hot-water_bottle	802	97	1	stimuli\hot-water_bottle\hot-water_bottle_05s.jpg	4	-1	1	0	hot-water_bottle_05s.jpg	0	0.0	0	101.929630814353	101.97960974928002	0.0499789349269122	113810
113.91	50	407	0	0	cauliflower	288	98	1	stimuli\cauliflower\cauliflower_01b.jpg	0	-1	1	0	cauliflower_01b.jpg	0	0.0	0	102.029629400291	102.07961028564002	0.0499808853492141	113910
114.01	50	408	0	0	drain	515	99	1	stimuli\drain\drain_01b.jpg	0	-1	1	0	drain_01b.jpg	0	0.0	0	102.12962359760401	102.179610822001	0.0499872243963182	114010
114.11	50	409	0	0	pool_table	1222	100	1	stimuli\pool_table\pool_table_01s.jpg	0	-1	1	0	pool_table_01s.jpg	0	0.0	0	102.22963608062099	102.27961038315	0.0499743025284261	114110
114.21	50	410	0	0	hammer	741	101	1	stimuli\hammer\hammer_12s.jpg	11	-1	1	0	hammer_12s.jpg	0	0.0	0	102.32964027416901	102.379608481424	0.0499682072550058	114210
114.31	50	411	0	0	sandcastle	1355	102	1	stimuli\sandcastle\sandcastle_11s.jpg	10	-1	1	0	sandcastle_11s.jpg	0	0.0	0	102.429658852401	102.479637787328	0.0499789349269122	114310
114.41	50	412	0	0	gourd	696	103	1	stimuli\gourd\gourd_02s.jpg	1	-1	1	0	gourd_02s.jpg	0	0.0	0	102.52966085163601	102.579641005606	0.0499801539699547	114410
114.51	50	413	0	0	cardboard	272	104	1	stimuli\cardboard\cardboard_12s.jpg	11	-1	1	0	cardboard_12s.jpg	0	0.0	0	102.629644565226	102.679643492447	0.0499989272211678	114510
114.61	50	414	0	0	ladle	887	105	1	stimuli\ladle\ladle_03s.jpg	2	-1	1	0	ladle_03s.jpg	0	0.0	0	102.729667288251	102.779648417374	0.04998112912289799	114610
114.71	50	415	0	0	trough	1718	106	1	stimuli\trough\trough_06s.jpg	5	-1	1	0	trough_06s.jpg	0	0.0	0	102.82966660556801	102.87965139187901	0.0499847863102332	114710
114.81	50	416	0	0	wheel	1806	107	1	stimuli\wheel\wheel_03s.jpg	2	-1	1	0	wheel_03s.jpg	0	0.0	0	102.92966884857701	102.979650953028	0.0499821044504642	114810
114.91	50	417	0	0	cement_mixer	294	108	1	stimuli\cement_mixer\cement_mixer_06s.jpg	5	-1	1	0	cement_mixer_06s.jpg	0	0.0	0	103.029674017336	103.079651245556	0.0499772282200865	114910
115.01	50	418	0	0	scoreboard	1383	109	1	stimuli\scoreboard\scoreboard_03s.jpg	2	-1	1	0	scoreboard_03s.jpg	0	0.0	0	103.12967235944201	103.179656170541	0.0499838110990822	115010
115.11	50	419	0	0	radish	1274	110	1	stimuli\radish\radish_07s.jpg	6	-1	1	0	radish_07s.jpg	0	0.0	0	103.22967752820101	103.27965938882	0.0499818606185727	115110
115.21	50	420	0	0	tugboat	1725	111	1	stimuli\tugboat\tugboat_08s.jpg	7	-1	1	0	tugboat_08s.jpg	0	0.0	0	103.32967952743601	103.37964334618299	0.0499638187466189	115210
115.31	50	421	0	0	file2	584	112	1	stimuli\file2\file2_06s.jpg	5	-1	1	0	file2_06s.jpg	0	0.0	0	103.429682014277	103.479652903508	0.0499708892311901	115310
115.41	50	422	0	0	soldering_iron	1494	113	1	stimuli\soldering_iron\soldering_iron_07s.jpg	6	-1	1	0	soldering_iron_07s.jpg	0	0.0	0	103.52968474495	103.57966294843901	0.0499782034894451	115410
115.51	50	423	0	0	coop	404	114	1	stimuli\coop\coop_03s.jpg	2	-1	1	0	coop_03s.jpg	0	0.0	0	103.629673822317	103.67965836479601	0.0499845424783416	115510
115.61	50	424	0	0	pincushion	1179	115	1	stimuli\pincushion\pincushion_02s.jpg	1	-1	1	0	pincushion_02s.jpg	0	0.0	0	103.729676065326	103.779652074503	0.049976009177044006	115610
115.71	50	425	0	0	grits	717	116	1	stimuli\grits\grits_01s.jpg	0	-1	1	0	grits_01s.jpg	0	0.0	0	103.82967489509599	103.879657243262	0.0499823481659405	115710
115.81	50	426	0	0	trolley	1715	117	1	stimuli\trolley\trolley_02s.jpg	1	-1	1	0	trolley_02s.jpg	0	0.0	0	103.92967762571101	103.97968849964701	0.0500108739361167	115810
115.91	50	427	0	0	speedboat	1511	118	1	stimuli\speedboat\speedboat_10s.jpg	9	-1	1	0	speedboat_10s.jpg	0	0.0	0	104.029706444009	104.079677576956	0.0499711329466663	115910
116.01	50	428	0	0	brake	191	119	1	stimuli\brake\brake_03s.jpg	2	-1	1	0	brake_03s.jpg	0	0.0	0	104.12970039749099	104.179680307629	0.0499799101380631	116010
116.11	50	429	0	0	bolo_tie	157	120	1	stimuli\bolo_tie\bolo_tie_09s.jpg	8	-1	1	0	bolo_tie_09s.jpg	0	0.0	0	104.22970264055799	104.279689621122	0.0499869805644266	116110
116.21	50	430	0	0	icicle	824	121	1	stimuli\icicle\icicle_01b.jpg	0	-1	1	0	icicle_01b.jpg	0	0.0	0	104.32970317691799	104.37968625658002	0.0499830796616152	116210
116.31	50	431	0	0	rocking_horse	1322	122	1	stimuli\rocking_horse\rocking_horse_06s.jpg	5	-1	1	0	rocking_horse_06s.jpg	0	0.0	0	104.42969054763701	104.479672652029	0.0499821043922566	116310
116.41	50	432	0	0	coal	367	123	1	stimuli\coal\coal_12s.jpg	11	-1	1	0	coal_12s.jpg	0	0.0	0	104.529710101138	104.57967440743201	0.0499643062939867	116410
116.51	50	433	0	0	giraffe	675	124	1	stimuli\giraffe\giraffe_04s.jpg	3	-1	1	0	giraffe_04s.jpg	0	0.0	0	104.629715269897	104.679693473328	0.0499782034312375	116510
116.61	50	434	0	0	taco	1613	125	1	stimuli\taco\taco_02s.jpg	1	-1	1	0	taco_02s.jpg	0	0.0	0	104.72971312433901	104.779675480211	0.0499623558716848	116610
116.71	50	435	0	0	shoulder	1431	126	1	stimuli\shoulder\shoulder_08s.jpg	7	-1	1	0	shoulder_08s.jpg	0	0.0	0	104.82970878452801	104.879683818494	0.0499750339658931	116710
116.81	50	436	0	0	tripod	1714	127	1	stimuli\tripod\tripod_06s.jpg	5	-1	1	0	tripod_06s.jpg	0	0.0	0	104.929702494293	104.97968118533001	0.049978691036812996	116810
116.91	50	437	0	0	clipper2	357	128	1	stimuli\clipper2\clipper2_05s.jpg	4	-1	1	0	clipper2_05s.jpg	0	0.0	0	105.02970595634501	105.079685622652	0.0499796663061716	116910
117.01	50	438	0	0	flipper	615	129	1	stimuli\flipper\flipper_11s.jpg	10	-1	1	0	flipper_11s.jpg	0	0.0	0	105.129708443244	105.179674456187	0.0499660129426047	117010
117.11	50	439	0	0	backdrop	47	130	1	stimuli\backdrop\backdrop_04s.jpg	3	-1	1	0	backdrop_04s.jpg	0	0.0	0	105.229699471034	105.27969547256399	0.0499960015295073	117110
117.21	50	440	0	0	powder	1236	131	1	stimuli\powder\powder_08s.jpg	7	-1	1	0	powder_08s.jpg	0	0.0	0	105.32973755401301	105.37971112510401	0.049973571090959006	117210
117.31	50	441	0	0	ashtray	41	132	1	stimuli\ashtray\ashtray_01s.jpg	0	-1	1	0	ashtray_01s.jpg	0	0.0	0	105.429732482822	105.479722145305	0.0499896624824032	117310
117.41	50	442	0	0	oilcan	1073	133	1	stimuli\oilcan\oilcan_06s.jpg	5	-1	1	0	oilcan_06s.jpg	0	0.0	0	105.529734482057	105.579719268368	0.0499847863102332	117410
117.51	50	443	0	0	box	181	134	1	stimuli\box\box_11s.jpg	10	-1	1	0	box_11s.jpg	0	0.0	0	105.629721365112	105.679718098079	0.0499967329669744	117510
117.61	50	444	0	0	hairdryer	735	135	1	stimuli\hairdryer\hairdryer_03s.jpg	2	-1	1	0	hairdryer_03s.jpg	0	0.0	0	105.729735311004	105.77970668778299	0.0499713767785579	117610
117.71	50	445	0	0	broccoli	201	136	1	stimuli\broccoli\broccoli_03s.jpg	2	-1	1	0	broccoli_03s.jpg	0	0.0	0	105.829752670194	105.879728435597	0.0499757654033601	117710
117.81	50	446	0	0	chicken_wire	324	137	1	stimuli\chicken_wire\chicken_wire_07s.jpg	6	-1	1	0	chicken_wire_07s.jpg	0	0.0	0	105.929744185647	105.979725070996	0.0499808853492141	117810
117.91	50	447	0	0	cockroach	373	138	1	stimuli\cockroach\cockroach_04n.jpg	3	-1	1	0	cockroach_04n.jpg	0	0.0	0	106.029747160093	106.079707565485	0.0499604053911753	117910
118.01	50	448	0	0	plastic_film	1196	139	1	stimuli\plastic_film\plastic_film_07s.jpg	6	-1	1	0	plastic_film_07s.jpg	0	0.0	0	106.129720877507	106.17971224663799	0.0499913691310212	118010
118.11	50	449	0	0	mole	1014	140	1	stimuli\mole\mole_04s.jpg	3	-1	1	0	mole_04s.jpg	0	0.0	0	106.229741893825	106.279720097315	0.0499782034894451	118110
118.21	50	450	0	0	sandbag	1353	141	1	stimuli\sandbag\sandbag_06s.jpg	5	-1	1	0	sandbag_06s.jpg	0	0.0	0	106.32976632349899	106.379719658464	0.0499533349648118	118210
118.31	50	451	0	0	pillbox	1175	142	1	stimuli\pillbox\pillbox_11s.jpg	10	-1	1	0	pillbox_11s.jpg	0	0.0	0	106.42974662373301	106.479726777645	0.049980153911747004	118310
118.41	50	452	0	0	star_fruit	1540	143	1	stimuli\star_fruit\star_fruit_01b.jpg	0	-1	1	0	star_fruit_01b.jpg	0	0.0	0	106.52974447823401	106.57972950831801	0.0499850300839171	118410
118.51	50	453	0	0	taillight	1617	144	1	stimuli\taillight\taillight_04s.jpg	3	-1	1	0	taillight_04s.jpg	0	0.0	0	106.629746965074	106.67973028851	0.0499833234352991	118510
118.61	50	454	0	0	clay	352	145	1	stimuli\clay\clay_08s.jpg	7	-1	1	0	clay_08s.jpg	0	0.0	0	106.729751890001	106.779735457269	0.0499835672671907	118610
118.71	50	455	0	0	thread	1651	146	1	stimuli\thread\thread_10s.jpg	9	-1	1	0	thread_10s.jpg	0	0.0	0	106.82977558829599	106.87975452316499	0.0499789348687045	118710
118.81	50	456	0	0	mast	981	147	1	stimuli\mast\mast_02s.jpg	1	-1	1	0	mast_02s.jpg	0	0.0	0	106.92976807896	106.979753352876	0.0499852739158086	118810
118.91	50	457	0	0	vest	1759	148	1	stimuli\vest\vest_09s.jpg	8	-1	1	0	vest_09s.jpg	0	0.0	0	107.02977592957899	107.079751938756	0.049976009177044006	118910
119.01	50	458	0	0	stilt	1555	149	1	stimuli\stilt\stilt_06s.jpg	5	-1	1	0	stilt_06s.jpg	0	0.0	0	107.12977378408002	107.179738821869	0.0499650377896614	119010
119.11	50	459	0	0	train_set	1700	150	1	stimuli\train_set\train_set_09s.jpg	8	-1	1	0	train_set_09s.jpg	0	0.0	0	107.229757985217	107.279742771527	0.0499847863102332	119110
119.21	50	460	0	0	sandal	1352	151	1	stimuli\sandal\sandal_12s.jpg	11	-1	1	0	sandal_12s.jpg	0	0.0	0	107.32976632349899	107.379747696512	0.0499813730129972	119210
119.31	50	461	0	0	flute	620	152	1	stimuli\flute\flute_05s.jpg	4	-1	1	0	flute_05s.jpg	0	0.0	0	107.42976588464799	107.479750427185	0.0499845425365493	119310
119.41	50	462	0	0	insole	831	153	1	stimuli\insole\insole_03s.jpg	2	-1	1	0	insole_03s.jpg	0	0.0	0	107.529770078196	107.579751207377	0.0499811291811056	119410
119.51	50	463	0	0	wok	1830	154	1	stimuli\wok\wok_09s.jpg	8	-1	1	0	wok_09s.jpg	0	0.0	0	107.62977427168501	107.679755400866	0.0499811291811056	119510
119.61	50	464	0	0	tuning_fork	1728	155	1	stimuli\tuning_fork\tuning_fork_08s.jpg	7	-1	1	0	tuning_fork_08s.jpg	0	0.0	0	107.72977968427601	107.77975935058201	0.0499796663061716	119610
119.71	50	465	0	0	minivan	1003	156	1	stimuli\minivan\minivan_08s.jpg	7	-1	1	0	minivan_08s.jpg	0	0.0	0	107.82977753871799	107.87975988694201	0.0499823482241482	119710
119.81	50	466	0	0	crutch	452	157	1	stimuli\crutch\crutch_01b.jpg	0	-1	1	0	crutch_01b.jpg	0	0.0	0	107.92978148843399	107.97975920431801	0.0499777158838697	119810
119.91	50	467	0	0	wind_chimes	1817	158	1	stimuli\wind_chimes\wind_chimes_04s.jpg	3	-1	1	0	wind_chimes_04s.jpg	0	0.0	0	108.02978153718901	108.079749988276	0.0499684510868974	119910
120.01	50	468	0	0	hard_disk	752	159	1	stimuli\hard_disk\hard_disk_11s.jpg	10	-1	1	0	hard_disk_11s.jpg	0	0.0	0	108.12978134216999	108.17976271512501	0.0499813729547895	120010
120.11	50	469	0	0	dalmatian	471	160	1	stimuli\dalmatian\dalmatian_12s.jpg	11	-1	1	0	dalmatian_12s.jpg	0	0.0	0	108.229792606144	108.279770078196	0.0499774720519781	120110
120.21	50	470	0	0	sock	1489	161	1	stimuli\sock\sock_07s.jpg	6	-1	1	0	sock_07s.jpg	0	0.0	0	108.329787778726	108.379785486904	0.0499977081781253	120210
120.31	50	471	0	0	palette	1100	162	1	stimuli\palette\palette_08s.jpg	7	-1	1	0	palette_08s.jpg	0	0.0	0	108.429796604614	108.479791630933	0.0499950263183564	120310
120.41	50	472	0	0	sleeping_bag	1462	163	1	stimuli\sleeping_bag\sleeping_bag_05s.jpg	4	-1	1	0	sleeping_bag_05s.jpg	0	0.0	0	108.529791533365	108.579794361605	0.0500028282403946	120410
120.51	50	473	0	0	ostrich	1084	164	1	stimuli\ostrich\ostrich_12s.jpg	11	-1	1	0	ostrich_12s.jpg	0	0.0	0	108.629812062136	108.679793435091	0.0499813729547895	120510
120.61	50	474	0	0	lifesaver	925	165	1	stimuli\lifesaver\lifesaver_06s.jpg	5	-1	1	0	lifesaver_06s.jpg	0	0.0	0	108.72981454897699	108.77979982289301	0.0499852739158086	120610
120.71	50	475	0	0	spinach	1515	166	1	stimuli\spinach\spinach_02s.jpg	1	-1	1	0	spinach_02s.jpg	0	0.0	0	108.82982118060998	108.87979572691299	0.049974546302110005	120710
120.81	50	476	0	0	whipped_cream	1810	167	1	stimuli\whipped_cream\whipped_cream_07s.jpg	6	-1	1	0	whipped_cream_07s.jpg	0	0.0	0	108.92980343126699	108.979803333757	0.0499999024905264	120810
120.91	50	477	0	0	ice_pack	820	168	1	stimuli\ice_pack\ice_pack_07s.jpg	6	-1	1	0	ice_pack_07s.jpg	0	0.0	0	109.029827129561	109.07980411395	0.049976984388195	120910
121.01	50	478	0	0	skirt	1457	169	1	stimuli\skirt\skirt_06s.jpg	5	-1	1	1	skirt_06s.jpg	0	0.0	0	109.129823277355	109.179806357017	0.0499830796616152	121010
121.11	50	479	0	0	fig	581	170	1	stimuli\fig\fig_02s.jpg	1	-1	1	0	fig_02s.jpg	0	0.0	0	109.229829665157	109.279808356252	0.0499786910950206	121110
121.21	50	480	0	0	laptop	897	171	1	stimuli\laptop\laptop_07s.jpg	6	-1	1	0	laptop_07s.jpg	0	0.0	0	109.329813866294	109.37981035548701	0.0499964891932905	121210
121.31	50	481	0	0	slingshot	1467	172	1	stimuli\slingshot\slingshot_04s.jpg	3	-1	1	0	slingshot_04s.jpg	1	0.350153160921764	1	109.42983341979601	109.47981381753901	0.0499803977436386	121310
121.41	50	482	0	0	plunger	1204	173	1	stimuli\plunger\plunger_11s.jpg	10	-1	1	0	plunger_11s.jpg	0	0.0	0	109.52983541903099	109.579815573001	0.0499801539699547	121410
121.51	50	483	0	0	stool	1561	174	1	stimuli\stool\stool_02s.jpg	1	-1	1	0	stool_02s.jpg	0	0.0	0	109.629821570707	109.67981732840401	0.0499957576976158	121510
121.61	50	484	0	0	dragonfly	514	175	1	stimuli\dragonfly\dragonfly_03s.jpg	2	-1	1	0	dragonfly_03s.jpg	0	0.0	0	109.729842830857	109.779805430502	0.0499625996453688	121610
121.71	50	485	0	0	uniform	1747	176	1	stimuli\uniform\uniform_08s.jpg	7	-1	1	0	uniform_08s.jpg	0	0.0	0	109.82981630438	109.87980938021799	0.0499930758378468	121710
121.81	50	486	0	0	panther	1106	177	1	stimuli\panther\panther_07s.jpg	6	-1	1	0	panther_07s.jpg	0	0.0	0	109.929826836975	109.979816011852	0.0499891748768277	121810
121.91	50	487	0	0	lobster	939	178	1	stimuli\lobster\lobster_09s.jpg	8	-1	1	0	lobster_09s.jpg	0	0.0	0	110.029831274296	110.07981898629801	0.0499877120018937	121910
122.01	50	488	0	0	pepper1	1149	179	1	stimuli\pepper1\pepper1_02s.jpg	1	-1	1	0	pepper1_02s.jpg	0	0.0	0	110.129837174492	110.179817084572	0.0499799100798555	122010
122.11	50	489	0	0	purse	1259	180	1	stimuli\purse\purse_02s.jpg	1	-1	1	0	purse_02s.jpg	0	0.0	0	110.229836979415	110.27984419616399	0.0500072167487815	122110
122.21	50	490	0	0	handcuff	746	181	1	stimuli\handcuff\handcuff_08s.jpg	7	-1	1	0	handcuff_08s.jpg	0	0.0	0	110.329853607225	110.379819620226	0.0499660130008124	122210
122.31	50	491	0	0	incubator	827	182	1	stimuli\incubator\incubator_09s.jpg	8	-1	1	0	incubator_09s.jpg	0	0.0	0	110.42985609406601	110.479820644192	0.0499645501258783	122310
122.41	50	492	0	0	spool	1518	183	1	stimuli\spool\spool_08s.jpg	7	-1	1	0	spool_08s.jpg	0	0.0	0	110.529871746607	110.57984458626001	0.049972839653492	122410
122.51	50	493	0	0	rag	1276	184	1	stimuli\rag\rag_11s.jpg	10	-1	1	0	rag_11s.jpg	0	0.0	0	110.62986570014601	110.679844878847	0.0499791787005961	122510
122.61	50	494	0	0	baklava	57	185	1	stimuli\baklava\baklava_02s.jpg	1	-1	1	0	baklava_02s.jpg	0	0.0	0	110.72986672417	110.779847121914	0.0499803977436386	122610
122.71	50	495	0	0	chest1	319	186	1	stimuli\chest1\chest1_02s.jpg	1	-1	1	0	chest1_02s.jpg	0	0.0	0	110.829869698617	110.87983546778601	0.0499657691689208	122710
122.81	50	496	0	0	nail_clippers	1047	187	1	stimuli\nail_clippers\nail_clippers_01b.jpg	0	-1	1	0	nail_clippers_01b.jpg	0	0.0	0	110.92985755694099	110.979832347075	0.0499747901340015	122810
122.91	50	497	0	0	blender	138	188	1	stimuli\blender\blender_10s.jpg	9	-1	1	0	blender_10s.jpg	0	0.0	0	111.02985589904699	111.079853607225	0.0499977081781253	122910
123.01	50	498	0	0	llama	938	189	1	stimuli\llama\llama_02s.jpg	1	-1	1	0	llama_02s.jpg	0	0.0	0	111.129874233447	111.179856581672	0.0499823482241482	123010
123.11	50	499	0	0	razor_blade	1291	190	1	stimuli\razor_blade\razor_blade_11s.jpg	10	-1	1	1	razor_blade_11s.jpg	0	0.0	0	111.229877207952	111.27986028755501	0.0499830796034075	123110
123.21	50	500	0	0	gravy	711	191	1	stimuli\gravy\gravy_06s.jpg	5	-1	1	0	gravy_06s.jpg	0	0.0	0	111.329864578613	111.379862286791	0.0499977081781253	123210
123.31	50	501	0	0	sheath	1413	192	1	stimuli\sheath\sheath_10s.jpg	9	-1	1	0	sheath_10s.jpg	0	0.0	0	111.42986560263701	111.47986452985799	0.0499989272211678	123310
123.41	50	502	0	0	frame	639	193	1	stimuli\frame\frame_09s.jpg	8	-1	1	0	frame_09s.jpg	0	0.0	0	111.52986540756001	111.579840197694	0.0499747901340015	123410
123.51	50	503	0	0	bracelet1	187	194	1	stimuli\bracelet1\bracelet1_02s.jpg	1	-1	1	0	bracelet1_02s.jpg	1	0.44190514454385293	1	111.629873989674	111.67985365598	0.0499796663061716	123510
123.61	50	504	0	0	duct_tape	528	195	1	stimuli\duct_tape\duct_tape_05s.jpg	4	-1	1	0	duct_tape_05s.jpg	0	0.0	0	111.72987842699499	111.779858337133	0.0499799101380631	123610
123.71	50	505	0	0	meatloaf	990	196	1	stimuli\meatloaf\meatloaf_09s.jpg	8	-1	1	0	meatloaf_09s.jpg	0	0.0	0	111.829878963355	111.87984741444201	0.0499684510868974	123710
123.81	50	506	0	0	wrap	1837	197	1	stimuli\wrap\wrap_09s.jpg	8	-1	1	0	wrap_09s.jpg	0	0.0	0	111.92988559498899	111.97987672034701	0.0499911253573373	123810
123.91	50	507	0	0	rickshaw	1310	198	1	stimuli\rickshaw\rickshaw_04s.jpg	3	-1	1	0	rickshaw_04s.jpg	0	0.0	0	112.02989783417401	112.07986165292101	0.0499638187466189	123910
124.01	50	508	0	0	marmalade	976	199	1	stimuli\marmalade\marmalade_05s.jpg	4	-1	1	0	marmalade_05s.jpg	0	0.0	0	112.129903002933	112.17986682168001	0.0499638187466189	124010
124.11	50	509	0	0	sea_urchin	1393	200	1	stimuli\sea_urchin\sea_urchin_02s.jpg	1	-1	1	0	sea_urchin_02s.jpg	0	0.0	0	112.22987988986999	112.279867114266	0.0499872243963182	124110
124.21	50	510	0	0	blackberry	135	201	1	stimuli\blackberry\blackberry_12s.jpg	11	-1	1	0	blackberry_12s.jpg	0	0.0	0	112.329887252883	112.37986886966999	0.0499816167866811	124210
124.31	50	511	0	0	champagne	304	202	1	stimuli\champagne\champagne_05s.jpg	4	-1	1	0	champagne_05s.jpg	0	0.0	0	112.42989022732901	112.47986964986201	0.0499794225324877	124310
124.41	50	512	0	0	dirt_bike	488	203	1	stimuli\dirt_bike\dirt_bike_06s.jpg	5	-1	1	0	dirt_bike_06s.jpg	0	0.0	0	112.52989320183399	112.579874087183	0.0499808853492141	124410
124.51	50	513	0	0	blinder	141	204	1	stimuli\blinder\blinder_06s.jpg	5	-1	1	0	blinder_06s.jpg	0	0.0	0	112.62989739532301	112.679879255942	0.0499818606185727	124510
124.61	50	514	0	0	flask	612	205	1	stimuli\flask\flask_08s.jpg	7	-1	1	0	flask_08s.jpg	0	0.0	0	112.72989524982401	112.77991075610001	0.0500155062763952	124610
124.71	50	515	0	0	card	271	206	1	stimuli\card\card_06s.jpg	5	-1	1	0	card_06s.jpg	0	0.0	0	112.829915290931	112.87988203536999	0.0499667444382794	124710
124.81	50	516	0	0	batter	96	207	1	stimuli\batter\batter_05s.jpg	4	-1	1	0	batter_05s.jpg	0	0.0	0	112.92990412446699	112.97990134503901	0.0499972205725498	124810
124.91	50	517	0	0	chipmunk	334	208	1	stimuli\chipmunk\chipmunk_11s.jpg	10	-1	1	0	chipmunk_11s.jpg	0	0.0	0	113.029920508445	113.079887252883	0.0499667444382794	124910
125.01	50	518	0	0	hydrant	814	209	1	stimuli\hydrant\hydrant_07s.jpg	6	-1	1	0	hydrant_07s.jpg	0	0.0	0	113.129924701992	113.17990631877899	0.0499816167866811	125010
125.11	50	519	0	0	pitchfork	1191	210	1	stimuli\pitchfork\pitchfork_02s.jpg	1	-1	1	0	pitchfork_02s.jpg	0	0.0	0	113.229927676439	113.279909293226	0.0499816167866811	125110
125.21	50	520	0	0	shoelace	1426	211	1	stimuli\shoelace\shoelace_06s.jpg	5	-1	1	0	shoelace_06s.jpg	0	0.0	0	113.329913828056	113.37991129246099	0.0499974644044414	125210
125.31	50	521	0	0	parking_meter	1120	212	1	stimuli\parking_meter\parking_meter_03s.jpg	2	-1	1	0	parking_meter_03s.jpg	0	0.0	0	113.429930212034	113.479916705051	0.0499864930170588	125310
125.41	50	522	0	0	palm_tree	1102	213	1	stimuli\palm_tree\palm_tree_05s.jpg	4	-1	1	0	palm_tree_05s.jpg	0	0.0	0	113.529937331274	113.579922361416	0.0499850301421247	125410
125.51	50	523	0	0	eagle	537	214	1	stimuli\eagle\eagle_01b.jpg	0	-1	1	0	eagle_01b.jpg	0	0.0	0	113.629942256259	113.67992045969	0.0499782034312375	125510
125.61	50	524	0	0	trigger	1713	215	1	stimuli\trigger\trigger_11s.jpg	10	-1	1	0	trigger_11s.jpg	0	0.0	0	113.72994011070101	113.77992879797199	0.0499886872712523	125610
125.71	50	525	0	0	shawl	1411	216	1	stimuli\shawl\shawl_08s.jpg	7	-1	1	0	shawl_08s.jpg	0	0.0	0	113.82994381664301	113.879923970555	0.049980153911747004	125710
125.81	50	526	0	0	slipper	1468	217	1	stimuli\slipper\slipper_07s.jpg	6	-1	1	0	slipper_07s.jpg	0	0.0	0	113.929929724429	113.979931333568	0.0500016091391444	125810
125.91	50	527	0	0	chicken1	322	218	1	stimuli\chicken1\chicken1_09s.jpg	8	-1	1	0	chicken1_09s.jpg	0	0.0	0	114.029948546493	114.07991138997	0.0499628434772603	125910
126.01	50	528	0	0	tooth	1678	219	1	stimuli\tooth\tooth_07s.jpg	6	-1	1	0	tooth_07s.jpg	0	0.0	0	114.12995103339199	114.17993362538999	0.0499825919978321	126010
126.11	50	529	0	0	spout	1520	220	1	stimuli\spout\spout_10s.jpg	9	-1	1	0	spout_10s.jpg	0	0.0	0	114.229939379264	114.27992197132	0.0499825920560397	126110
126.21	50	530	0	0	banana_split	65	221	1	stimuli\banana_split\banana_split_06s.jpg	5	-1	1	0	banana_split_06s.jpg	0	0.0	0	114.329940159456	114.379929821938	0.0499896624824032	126210
126.31	50	531	0	0	fungus	648	222	1	stimuli\fungus\fungus_12s.jpg	11	-1	1	0	fungus_12s.jpg	0	0.0	0	114.429942402523	114.479922556435	0.049980153911747004	126310
126.41	50	532	0	0	bookshelf	167	223	1	stimuli\bookshelf\bookshelf_02s.jpg	1	-1	1	0	bookshelf_02s.jpg	0	0.0	0	114.529947815114	114.579924068064	0.0499762529507279	126410
126.51	50	533	0	0	camper	249	224	1	stimuli\camper\camper_04s.jpg	3	-1	1	0	camper_04s.jpg	0	0.0	0	114.629946644825	114.67992387304501	0.0499772282200865	126510
126.61	50	534	0	0	elephant	554	225	1	stimuli\elephant\elephant_03n.jpg	2	-1	1	0	elephant_03n.jpg	0	0.0	0	114.729948887834	114.779934649414	0.0499857615795918	126610
126.71	50	535	0	0	bin	125	226	1	stimuli\bin\bin_06s.jpg	5	-1	1	0	bin_06s.jpg	0	0.0	0	114.829951862339	114.879950058123	0.0499981957837008	126710
126.81	50	536	0	0	robe	1317	227	1	stimuli\robe\robe_04s.jpg	3	-1	1	0	robe_04s.jpg	0	0.0	0	114.929974341532	114.979953764006	0.04997942247428	126810
126.91	50	537	0	0	tricycle	1711	228	1	stimuli\tricycle\tricycle_09s.jpg	8	-1	1	0	tricycle_09s.jpg	0	0.0	0	115.02995951793899	115.079938940413	0.04997942247428	126910
127.01	50	538	0	0	skull	1458	229	1	stimuli\skull\skull_08s.jpg	7	-1	1	0	skull_08s.jpg	0	0.0	0	115.12996102956801	115.17993777012501	0.0499767405563034	127010
127.11	50	539	0	0	rearview_mirror	1293	230	1	stimuli\rearview_mirror\rearview_mirror_06s.jpg	5	-1	1	0	rearview_mirror_06s.jpg	0	0.0	0	115.22996595449499	115.27994415792601	0.0499782034312375	127110
127.21	50	540	0	0	seatbelt	1399	231	1	stimuli\seatbelt\seatbelt_11s.jpg	10	-1	1	0	seatbelt_11s.jpg	0	0.0	0	115.329964052769	115.379946644825	0.0499825920560397	127210
127.31	50	541	0	0	soda	1490	232	1	stimuli\soda\soda_04s.jpg	3	-1	1	0	soda_04s.jpg	0	0.0	0	115.42998458154	115.479963760183	0.0499791786423884	127310
127.41	50	542	0	0	jewel	849	233	1	stimuli\jewel\jewel_10s.jpg	9	-1	1	0	jewel_10s.jpg	0	0.0	0	115.52998536167401	115.579967709898	0.0499823482241482	127410
127.51	50	543	0	0	cape	266	234	1	stimuli\cape\cape_01b.jpg	0	-1	1	0	cape_01b.jpg	0	0.0	0	115.629987848573	115.67995654343399	0.0499686948605813	127510
127.61	50	544	0	0	vulture	1768	235	1	stimuli\vulture\vulture_06s.jpg	5	-1	1	0	vulture_06s.jpg	0	0.0	0	115.729991554457	115.779975365498	0.0499838110408746	127610
127.71	50	545	0	0	penholder	1146	236	1	stimuli\penholder\penholder_10s.jpg	9	-1	1	0	penholder_10s.jpg	0	0.0	0	115.82999209081801	115.87995859142401	0.0499665006063879	127710
127.81	50	546	0	0	saucer	1363	237	1	stimuli\saucer\saucer_01b.jpg	0	-1	1	0	saucer_01b.jpg	0	0.0	0	115.92999384627899	115.97997692588301	0.0499830796034075	127810
127.91	50	547	0	0	air_mattress	5	238	1	stimuli\air_mattress\air_mattress_05s.jpg	4	-1	1	0	air_mattress_05s.jpg	0	0.0	0	116.030000234081	116.079963321332	0.0499630872509442	127910
128.01	50	548	0	0	peanut	1131	239	1	stimuli\peanut\peanut_11n.jpg	10	-1	1	0	peanut_11n.jpg	0	0.0	0	116.129999063793	116.179991895799	0.0499928320059553	128010
128.11	50	549	0	0	sarcophagus	1358	240	1	stimuli\sarcophagus\sarcophagus_12s.jpg	11	-1	1	0	sarcophagus_12s.jpg	0	0.0	0	116.229988384934	116.27998828742399	0.0499999024905264	128110
128.21	50	550	0	0	mousetrap	1029	241	1	stimuli\mousetrap\mousetrap_02s.jpg	1	-1	1	0	mousetrap_02s.jpg	0	0.0	0	116.330005256517	116.37999004282801	0.0499847863102332	128210
128.31	50	551	0	0	jeep	843	242	1	stimuli\jeep\jeep_02s.jpg	1	-1	1	0	jeep_02s.jpg	0	0.0	0	116.429999697662	116.47999545541799	0.0499957577558234	128310
128.41	50	552	0	0	cheetah	315	243	1	stimuli\cheetah\cheetah_07s.jpg	6	-1	1	0	cheetah_07s.jpg	0	0.0	0	116.530013643554	116.579993066087	0.0499794225324877	128410
128.51	50	553	0	0	sweeper	1594	244	1	stimuli\sweeper\sweeper_08s.jpg	7	-1	1	0	sweeper_08s.jpg	0	0.0	0	116.63001247326599	116.679994090053	0.0499816167866811	128510
128.61	50	554	0	0	flashbulb	610	245	1	stimuli\flashbulb\flashbulb_03s.jpg	2	-1	1	0	flashbulb_03s.jpg	0	0.0	0	116.730006670638	116.780002672167	0.0499960015295073	128610
128.71	50	555	0	0	slug	1472	246	1	stimuli\slug\slug_07s.jpg	6	-1	1	0	slug_07s.jpg	0	0.0	0	116.83002256701	116.88000491517599	0.0499823481659405	128710
128.81	50	556	0	0	mullet	1039	247	1	stimuli\mullet\mullet_12s.jpg	11	-1	1	0	mullet_12s.jpg	0	0.0	0	116.930026029062	116.980015935376	0.0499899063142948	128810
128.91	50	557	0	0	sandpaper	1356	248	1	stimuli\sandpaper\sandpaper_04s.jpg	3	-1	1	0	sandpaper_04s.jpg	0	0.0	0	117.03003314830099	117.079995991779	0.0499628434772603	128910
129.01	50	558	0	0	headset	769	249	1	stimuli\headset\headset_03s.jpg	2	-1	1	0	headset_03s.jpg	0	0.0	0	117.13001637422701	117.179988726275	0.0499723520479165	129010
129.11	50	559	0	0	cigarette	344	250	1	stimuli\cigarette\cigarette_01b.jpg	0	-1	1	0	cigarette_01b.jpg	0	0.0	0	117.23000203823901	117.27998170454501	0.0499796663061716	129110
129.21	50	560	0	0	router	1336	251	1	stimuli\router\router_04s.jpg	3	-1	1	0	router_04s.jpg	0	0.0	0	117.330002086994	117.37998467905001	0.0499825920560397	129210
129.31	50	561	0	0	dryer	524	252	1	stimuli\dryer\dryer_03s.jpg	2	-1	1	0	dryer_03s.jpg	0	0.0	0	117.430013838632	117.47998521541	0.0499713767785579	129310
129.41	50	562	0	0	necklace	1054	253	1	stimuli\necklace\necklace_10n.jpg	9	-1	1	0	necklace_10n.jpg	0	0.0	0	117.530012180738	117.57999038416901	0.0499782034312375	129410
129.51	50	563	0	0	hot-air_balloon	801	254	1	stimuli\hot-air_balloon\hot-air_balloon_04s.jpg	3	-1	1	0	hot-air_balloon_04s.jpg	0	0.0	0	117.630035147537	117.67999384627899	0.0499586987425573	129510
129.61	50	564	0	0	shopping_basket	1427	255	1	stimuli\shopping_basket\shopping_basket_04s.jpg	3	-1	1	0	shopping_basket_04s.jpg	0	0.0	0	117.730014716333	117.77999462647101	0.0499799101380631	129610
129.71	50	565	0	0	trashcan	1704	256	1	stimuli\trashcan\trashcan_08s.jpg	7	-1	1	0	trashcan_08s.jpg	0	0.0	0	117.830030612706	117.880032221845	0.0500016091391444	129710
129.81	50	566	0	0	scarecrow	1376	257	1	stimuli\scarecrow\scarecrow_09s.jpg	8	-1	1	0	scarecrow_09s.jpg	0	0.0	0	117.930034074758	117.980035440123	0.0500013653654605	129810
129.91	50	567	0	0	gift	672	258	1	stimuli\gift\gift_05s.jpg	4	-1	1	0	gift_05s.jpg	0	0.0	0	118.030055334966	118.08003378222901	0.0499784472631291	129910
130.01	50	568	0	0	cinnamon	348	259	1	stimuli\cinnamon\cinnamon_01b.jpg	0	-1	1	0	cinnamon_01b.jpg	0	0.0	0	118.13003831706001	118.180025785288	0.0499874682282098	130010
130.11	50	569	0	0	hoodie	792	260	1	stimuli\hoodie\hoodie_05s.jpg	4	-1	1	0	hoodie_05s.jpg	0	0.0	0	118.230026906764	118.28004070639099	0.0500137996277772	130110
130.21	50	570	0	0	turntable	1735	261	1	stimuli\turntable\turntable_09s.jpg	8	-1	1	0	turntable_09s.jpg	0	0.0	0	118.330060357403	118.380041242752	0.0499808853492141	130210
130.31	50	571	0	0	keg	866	262	1	stimuli\keg\keg_07s.jpg	6	-1	1	0	keg_07s.jpg	0	0.0	0	118.43006260047	118.48004470486201	0.0499821043922566	130310
130.41	50	572	0	0	sardine	1359	263	1	stimuli\sardine\sardine_07s.jpg	6	-1	1	0	sardine_07s.jpg	0	0.0	0	118.530065087311	118.58004987362101	0.0499847863102332	130410
130.51	50	573	0	0	face_mask	570	264	1	stimuli\face_mask\face_mask_03s.jpg	2	-1	1	0	face_mask_03s.jpg	0	0.0	0	118.63006952463199	118.680053091899	0.0499835672671907	130510
130.61	50	574	0	0	arrow	38	265	1	stimuli\arrow\arrow_11s.jpg	10	-1	1	0	arrow_11s.jpg	0	0.0	0	118.730057870562	118.780021445476	0.0499635749147274	130610
130.71	50	575	0	0	flypaper	622	266	1	stimuli\flypaper\flypaper_08s.jpg	7	-1	1	0	flypaper_08s.jpg	0	0.0	0	118.830040121276	118.88001978758301	0.0499796663061716	130710
130.81	50	576	0	0	cheese	312	267	1	stimuli\cheese\cheese_09s.jpg	8	-1	1	0	cheese_09s.jpg	0	0.0	0	118.930041632848	118.980022518197	0.0499808853492141	130810
130.91	50	577	0	0	bow2	175	268	1	stimuli\bow2\bow2_04s.jpg	3	-1	1	0	bow2_04s.jpg	0	0.0	0	119.030044363521	119.08002500509599	0.0499806415755302	130910
131.01	50	578	0	0	chest2	320	269	1	stimuli\chest2\chest2_09s.jpg	8	-1	1	0	chest2_09s.jpg	0	0.0	0	119.130044899881	119.180029686191	0.0499847863102332	131010
131.11	50	579	0	0	stirrup	1558	270	1	stimuli\stirrup\stirrup_12s.jpg	11	-1	1	0	stirrup_12s.jpg	0	0.0	0	119.23004811821698	119.280063380662	0.0500152624445036	131110
131.21	50	580	0	0	puddle	1247	271	1	stimuli\puddle\puddle_01b.jpg	0	-1	1	0	puddle_01b.jpg	0	0.0	0	119.330093515455	119.380066355108	0.049972839653492	131210
131.31	50	581	0	0	apple_tree	31	272	1	stimuli\apple_tree\apple_tree_02s.jpg	1	-1	1	0	apple_tree_02s.jpg	0	0.0	0	119.430089175643	119.480068354344	0.0499791787005961	131310
131.41	50	582	0	0	dashboard	475	273	1	stimuli\dashboard\dashboard_11s.jpg	10	-1	1	0	dashboard_11s.jpg	0	0.0	0	119.530071913963	119.58007157262199	0.0499996586586349	131410
131.51	50	583	0	0	dart	473	274	1	stimuli\dart\dart_01b.jpg	0	-1	1	0	dart_01b.jpg	0	0.0	0	119.63009219890199	119.680075034732	0.0499828358297236	131510
131.61	50	584	0	0	pear	1133	275	1	stimuli\pear\pear_05s.jpg	4	-1	1	0	pear_05s.jpg	0	0.0	0	119.730106876232	119.780049483525	0.0499426072929054	131610
131.71	50	585	0	0	aluminum_foil	17	276	1	stimuli\aluminum_foil\aluminum_foil_09s.jpg	8	-1	1	0	aluminum_foil_09s.jpg	0	0.0	0	119.830067427887	119.880048800842	0.0499813729547895	131710
131.81	50	586	0	0	switch	1600	277	1	stimuli\switch\switch_12s.jpg	11	-1	1	0	switch_12s.jpg	0	0.0	0	119.930070646165	119.98005177534701	0.0499811291811056	131810
131.91	50	587	0	0	overalls	1090	278	1	stimuli\overalls\overalls_10s.jpg	9	-1	1	0	overalls_10s.jpg	0	0.0	0	120.030071182526	120.08005304314399	0.0499818606185727	131910
132.01	50	588	0	0	coffee_filter	379	279	1	stimuli\coffee_filter\coffee_filter_09s.jpg	8	-1	1	1	coffee_filter_09s.jpg	0	0.0	0	120.13007586367901	120.180067720474	0.0499918567948043	132010
132.11	50	589	0	0	light_switch	926	280	1	stimuli\light_switch\light_switch_11s.jpg	10	-1	1	0	light_switch_11s.jpg	0	0.0	0	120.23008517717199	120.280053628259	0.0499684510868974	132110
132.21	50	590	0	0	highchair	777	281	1	stimuli\highchair\highchair_03s.jpg	2	-1	1	0	highchair_03s.jpg	0	0.0	0	120.330078886938	120.38005928462401	0.0499803976854309	132210
132.31	50	591	0	0	goldfish	688	282	1	stimuli\goldfish\goldfish_04s.jpg	3	-1	1	0	goldfish_04s.jpg	1	0.29228894901461894	1	120.43009063851801	120.480063478171	0.049972839653492	132310
132.41	50	592	0	0	wolf	1831	283	1	stimuli\wolf\wolf_05n.jpg	4	-1	1	0	wolf_05n.jpg	0	0.0	0	120.53008288540899	120.58006620884399	0.0499833234352991	132410
132.51	50	593	0	0	ottoman	1086	284	1	stimuli\ottoman\ottoman_12s.jpg	11	-1	1	0	ottoman_12s.jpg	0	0.0	0	120.63008195889401	120.680065769993	0.0499838110990822	132510
132.61	50	594	0	0	plug	1202	285	1	stimuli\plug\plug_10s.jpg	9	-1	1	0	plug_10s.jpg	0	0.0	0	120.73008493339898	120.780068013002	0.0499830796034075	132610
132.71	50	595	0	0	teapot	1634	286	1	stimuli\teapot\teapot_02s.jpg	1	-1	1	0	teapot_02s.jpg	0	0.0	0	120.83008937071999	120.880076351285	0.0499869805644266	132710
132.81	50	596	0	0	bumper	219	287	1	stimuli\bumper\bumper_09s.jpg	8	-1	1	0	bumper_09s.jpg	0	0.0	0	120.93009088235	120.980111752404	0.0500208700541407	132810
132.91	50	597	0	0	marble	972	288	1	stimuli\marble\marble_12s.jpg	11	-1	1	0	marble_12s.jpg	0	0.0	0	121.03012847772301	121.08010887546699	0.0499803977436386	132910
133.01	50	598	0	0	smoothie	1474	289	1	stimuli\smoothie\smoothie_08s.jpg	7	-1	1	0	smoothie_08s.jpg	0	0.0	0	121.130130233127	121.180099171819	0.0499689386924729	133010
133.11	50	599	0	0	walker1	1773	290	1	stimuli\walker1\walker1_04s.jpg	3	-1	1	0	walker1_04s.jpg	0	0.0	0	121.230140034284	121.28010239009701	0.0499623558134772	133110
133.21	50	600	0	0	jersey	846	291	1	stimuli\jersey\jersey_11s.jpg	10	-1	1	0	jersey_11s.jpg	0	0.0	0	121.330123016378	121.38008561602301	0.0499625996453688	133210
133.31	50	601	0	0	poster	1229	292	1	stimuli\poster\poster_09s.jpg	8	-1	1	0	poster_09s.jpg	0	0.0	0	121.43010794895201	121.48008883430201	0.0499808853492141	133310
133.41	50	602	0	0	barrel	76	293	1	stimuli\barrel\barrel_12s.jpg	11	-1	1	0	barrel_12s.jpg	0	0.0	0	121.530141155759	121.58012326021002	0.0499821044504642	133410
133.51	50	603	0	0	crayfish	434	294	1	stimuli\crayfish\crayfish_12s.jpg	11	-1	1	0	crayfish_12s.jpg	0	0.0	0	121.63014217978301	121.68012623465599	0.0499840548727661	133510
133.61	50	604	0	0	drumstick	523	295	1	stimuli\drumstick\drumstick_05s.jpg	4	-1	1	0	drumstick_05s.jpg	0	0.0	0	121.730150274234	121.78012628341101	0.049976009177044006	133610
133.71	50	605	0	0	pinwheel	1185	296	1	stimuli\pinwheel\pinwheel_06s.jpg	5	-1	1	0	pinwheel_06s.jpg	0	0.0	0	121.830147884903	121.880134377861	0.0499864929588512	133710
133.81	50	606	0	0	poker	1210	297	1	stimuli\poker\poker_04s.jpg	3	-1	1	0	poker_04s.jpg	0	0.0	0	121.93013671843799	121.98011906666201	0.0499823482241482	133810
133.91	50	607	0	0	football	629	298	1	stimuli\football\football_07s.jpg	6	-1	1	0	football_07s.jpg	0	0.0	0	122.030151151936	122.080134475429	0.0499833234935068	133910
134.01	50	608	0	0	marshmallow	977	299	1	stimuli\marshmallow\marshmallow_11s.jpg	10	-1	1	0	marshmallow_11s.jpg	0	0.0	0	122.13015705213199	122.18013744987499	0.0499803977436386	134010
134.11	50	609	0	0	gopher	694	300	1	stimuli\gopher\gopher_07s.jpg	6	-1	1	0	gopher_07s.jpg	0	0.0	0	122.23015929519899	122.28012238245	0.0499630872509442	134110
134.21	50	610	0	0	bottle	170	301	1	stimuli\bottle\bottle_07s.jpg	6	-1	1	0	bottle_07s.jpg	0	0.0	0	122.33014690969101	122.380112191255	0.0499652815633453	134210
134.31	50	611	0	0	zucchini	1853	302	1	stimuli\zucchini\zucchini_03s.jpg	2	-1	1	0	zucchini_03s.jpg	0	0.0	0	122.430132573703	122.48010882665399	0.0499762529507279	134310
134.41	50	612	0	0	fudge	647	303	1	stimuli\fudge\fudge_11s.jpg	10	-1	1	0	fudge_11s.jpg	0	0.0	0	122.530133353896	122.58014837250799	0.050015018612612004	134410
